X[s],"R TIBIALIS ANTERIOR: EMG 1",X[s],"R TIBIALIS ANTERIOR: ACC X 1",X[s],"R TIBIALIS ANTERIOR: ACC Y 1",X[s],"R TIBIALIS ANTERIOR: ACC Z 1",X[s],"R PERONEUS LONGUS: EMG 2",X[s],"R PERONEUS LONGUS: ACC X 2",X[s],"R PERONEUS LONGUS: ACC Y 2",X[s],"R PERONEUS LONGUS: ACC Z 2",X[s],"R GASTROCNEMIUS: EMG 3",X[s],"R GASTROCNEMIUS: ACC X 3",X[s],"R GASTROCNEMIUS: ACC Y 3",X[s],"R GASTROCNEMIUS: ACC Z 3",X[s],"R RECTUS FEMORIS: EMG 4",X[s],"R RECTUS FEMORIS: ACC X 4",X[s],"R RECTUS FEMORIS: ACC Y 4",X[s],"R RECTUS FEMORIS: ACC Z 4",X[s],"R_Tibia: EMG 5 (IM)",X[s],"R_Tibia: ACC X 5 (IM)",X[s],"R_Tibia: ACC Y 5 (IM)",X[s],"R_Tibia: ACC Z 5 (IM)",X[s],"R_Tibia: Gyro X 5 (IM)",X[s],"R_Tibia: Gyro Y 5 (IM)",X[s],"R_Tibia: Gyro Z 5 (IM)",X[s],"R_Tibia: Mag X 5 (IM)",X[s],"R_Tibia: Mag Y 5 (IM)",X[s],"R_Tibia: Mag Z 5 (IM)",X[s],"R_Foot_Switch: EMG 16",X[s],"R_Foot_Switch: ACC X 16",X[s],"R_Foot_Switch: ACC Y 16",X[s],"R_Foot_Switch: ACC Z 16"
0.000000,0,0.000000,0,0.000000,0,0.000000,0,0.000000,0,0.000000,0,0.000000,0,0.000000,0,0.000000,0,0.000000,0,0.000000,0,0.000000,0,0.000000,0,0.000000,0,0.000000,0,0.000000,0,0.000000,0,0.000000,0,0.000000,0,0.000000,0,0.000000,0,0.000000,0,0.000000,0,0.000000,0,0.000000,0,0.000000,0,0.000000,0.7166154,0.000000,0.7166154,0.000000,0.7166154,0.000000,0.7166154
0.0005192308,0,0.00675,0,0.00675,0,0.00675,0,0.0005192308,0,0.00675,0,0.00675,0,0.00675,0,0.0005192308,0,0.00675,0,0.00675,0,0.00675,0,0.0005192308,0,0.00675,0,0.00675,0,0.00675,0,0.0009,0,0.00675,0,0.00675,0,0.00675,0,0.00675,0,0.00675,0,0.00675,0,0.0135,0,0.0135,0,0.0135,0,0.0005192308,0.7166154,0.00675,0.7166154,0.00675,0.7166154,0.00675,0.7166154
0.001038462,0,0.0135,0,0.0135,0,0.0135,0,0.001038462,0,0.0135,0,0.0135,0,0.0135,0,0.001038462,0,0.0135,0,0.0135,0,0.0135,0,0.001038462,0,0.0135,0,0.0135,0,0.0135,0,0.0018,0,0.0135,0,0.0135,0,0.0135,0,0.0135,0,0.0135,0,0.0135,0,0.027,0,0.027,0,0.027,0,0.001038462,0.7166154,0.0135,0.7166154,0.0135,0.7166154,0.0135,0.7166154
0.001557692,0,0.02025,0,0.02025,0,0.02025,0,0.001557692,0,0.02025,0,0.02025,0,0.02025,0,0.001557692,0,0.02025,0,0.02025,0,0.02025,0,0.001557692,0,0.02025,0,0.02025,0,0.02025,0,0.0027,0,0.02025,0,0.02025,0,0.02025,0,0.02025,0,0.02025,0,0.02025,0,0.0405,-93.2,0.0405,4.6,0.0405,60.5,0.001557692,0.7166154,0.02025,0.7166154,0.02025,0.7166154,0.02025,0.7166154
0.002076923,0,0.027,0,0.027,0,0.027,0,0.002076923,0,0.027,0,0.027,0,0.027,0,0.002076923,0,0.027,0,0.027,0,0.027,0,0.002076923,0,0.027,0,0.027,0,0.027,0,0.0036,0,0.027,0,0.027,0,0.027,0,0.027,0,0.027,0,0.027,0,0.054,-95.9,0.054,4.8,0.054,70.5,0.002076923,0.7166154,0.027,0.7166154,0.027,0.7166154,0.027,0.7166154
0.002596154,0,0.03375,0,0.03375,0,0.03375,0,0.002596154,0,0.03375,0,0.03375,0,0.03375,0,0.002596154,0,0.03375,0,0.03375,0,0.03375,0,0.002596154,0,0.03375,0,0.03375,0,0.03375,0,0.0045,0,0.03375,0,0.03375,0,0.03375,0,0.03375,0,0.03375,0,0.03375,0,0.0675,-95.5,0.0675,4.7,0.0675,74.2,0.002596154,0.7166154,0.03375,0.7166154,0.03375,0.7166154,0.03375,0.7166154
0.003115385,0,0.0405,-1.382574,0.0405,0.5783513,0.0405,0.7495052,0.003115385,0,0.0405,-1.100708,0.0405,0.7483257,0.0405,-0.2931378,0.003115385,0,0.0405,0.02006192,0.0405,-0.9563421,0.0405,-0.4573403,0.003115385,0,0.0405,-0.2378636,0.0405,0.08363053,0.0405,0.03241969,0.0054,0,0.0405,0.3349609,0.0405,-2.205566,0.0405,-0.9013672,0.0405,444.939,0.0405,12.7439,0.0405,20,0.081,-95.2,0.081,5.3,0.081,80,0.003115385,0.7166154,0.0405,-48.46683,0.0405,-48.46683,0.0405,-48.46683
0.003634615,0,0.04725,-1.438516,0.04725,0.8331493,0.04725,0.6273034,0.003634615,0,0.04725,-1.14395,0.04725,0.9598943,0.04725,-0.1262121,0.003634615,0,0.04725,-0.1685201,0.04725,-0.6284534,0.04725,-0.2060092,0.003634615,0,0.04725,-0.2140772,0.04725,0.07964813,0.04725,0.03647215,0.0063,0,0.04725,0.4165039,0.04725,-2.196289,0.04725,-0.9682617,0.04725,450.7317,0.04725,-13.17073,0.04725,16.15854,0.0945,-95.2,0.0945,5.5,0.0945,83,0.003634615,0.7166154,0.04725,-48.46683,0.04725,-48.46683,0.04725,-48.46683
0.004153846,0,0.054,-1.290669,0.054,0.9099932,0.054,0.460294,0.004153846,0,0.054,-1.061397,0.054,0.9050432,0.054,-0.08956987,0.004153846,0,0.054,-0.585808,0.054,-0.3435025,0.054,0.04120183,0.004153846,0,0.054,-0.2140772,0.054,0,0.054,0.06889184,0.0072,0,0.054,0.3891602,0.054,-2.087891,0.054,-1.026855,0.054,446.2195,0.054,-18.84146,0.054,7.012195,0.108,-94.2,0.108,6,0.108,86.2,0.004153846,0.7166154,0.054,-48.46683,0.054,-48.46683,0.054,-48.46683
0.004673077,0,0.06075,-1.078887,0.06075,0.7765275,0.06075,0.4114133,0.004673077,0,0.06075,-0.9749127,0.06075,0.5955262,0.06075,-0.2524242,0.004673077,0,0.06075,-1.119455,0.06075,-0.06635843,0.06075,0.09064402,0.004673077,0,0.06075,-0.2378636,0.06075,-0.1035426,0.06075,0.1013115,0.0081,0,0.06075,0.3076172,0.06075,-1.990723,0.06075,-1.116699,0.06075,420.3659,0.06075,7.743903,0.06075,0.4878049,0.1215,-94.4,0.1215,6.6,0.1215,89,0.004673077,0.7166154,0.06075,-48.46683,0.06075,-48.46683,0.06075,-48.46683
0.005192308,0,0.0675,-0.982986,0.0675,0.5500403,0.0675,0.439927,0.005192308,0,0.0675,-1.049604,0.0675,0.2664196,0.0675,-0.341994,0.005192308,0,0.0675,-1.604953,0.0675,0.4527987,0.0675,-0.1153651,0.005192308,0,0.0675,-0.2259704,0.0675,-0.1314194,0.0675,0.09725906,0.009000001,0,0.0675,0.2299805,0.0675,-1.964844,0.0675,-1.219238,0.0675,395.6098,0.0675,35.42683,0.0675,3.780488,0.135,-94.3,0.135,7,0.135,89,0.005192308,0.7166154,0.0675,-48.46683,0.0675,-48.46683,0.0675,-48.46683
0.005711539,0,0.07425,-1.038928,0.07425,0.3680417,0.07425,0.480661,0.005711539,0,0.07425,-1.183261,0.07425,0.1332098,0.07425,-0.32978,0.005711539,0,0.07425,-1.64909,0.07425,1.233486,0.07425,-0.2760523,0.005711539,0,0.07425,-0.2299348,0.07425,-0.03584166,0.07425,0.04457707,0.0099,0,0.07425,0.1547852,0.07425,-1.996094,0.07425,-1.405273,0.07425,374.3293,0.07425,50.18293,0.07425,13.10976,0.1485,-94.2,0.1485,6.8,0.1485,88.3,0.005711539,0.7166154,0.07425,-48.46683,0.07425,-48.46683,0.07425,-48.46683
0.006230769,0,0.081,-1.158805,0.081,0.3195087,0.081,0.5132482,0.006230769,0,0.081,-1.238296,0.081,0.2311582,0.081,-0.2890664,0.006230769,0,0.081,-1.641065,0.081,1.616023,0.081,-0.06592293,0.006230769,0,0.081,-0.3250803,0.081,0.1632787,0.081,-0.08104921,0.0108,0,0.081,0.08642578,0.081,-1.967285,0.081,-1.621094,0.081,351.8293,0.081,55.18293,0.081,23.17073,0.162,-94.2,0.162,7.1,0.162,86.7,0.006230769,0.7166154,0.081,-48.46683,0.081,-48.46683,0.081,-48.46683
0.00675,0,0.08775,-1.226735,0.08775,0.4327523,0.08775,0.5051014,0.00675,0,0.08775,-1.198985,0.08775,0.4348909,0.08775,-0.3094232,0.00675,0,0.08775,-1.869771,0.08775,1.089059,0.08775,0.2430908,0.00675,0,0.08775,-0.483656,0.08775,0.469924,0.08775,-0.3241968,0.0117,0,0.08775,0.06835938,0.08775,-1.716309,0.08775,-1.861816,0.08775,321.0366,0.08775,56.89024,0.08775,31.40244,0.1755,-95.1,0.1755,7.4,0.1755,84.8,0.00675,0.7166154,0.08775,-48.46683,0.08775,-48.46683,0.08775,-48.46683
0.007269231,0,0.0945,-1.126838,0.0945,0.6471062,0.0945,0.5010279,0.007269231,0,0.0945,-1.104639,0.0945,0.5837725,0.0945,-0.3053519,0.007269231,0,0.0945,-1.929957,0.0945,0.1210066,0.0945,0.2183697,0.007269231,0,0.0945,-0.7849499,0.0945,0.9279007,0.0945,-0.8145447,0.0126,0,0.0945,0.1157227,0.0945,-1.496582,0.0945,-2.075195,0.0945,286.8293,0.0945,55.73171,0.0945,37.43903,0.189,-95.2,0.189,6.4,0.189,84.6,0.007269231,0.7166154,0.0945,-48.46683,0.0945,-48.46683,0.0945,-48.46683
0.007788462,0,0.10125,-0.8750974,0.10125,0.7846164,0.10125,0.5336152,0.007788462,0,0.10125,-1.022086,0.10125,0.6268697,0.10125,-0.1506402,0.007788462,0,0.10125,-1.937981,0.10125,-0.7533634,0.10125,-0.111245,0.007788462,0,0.10125,-1.561971,0.10125,1.676593,0.10125,-1.620984,0.0135,0,0.10125,0.1777344,0.10125,-1.313965,0.10125,-2.358398,0.10125,241.0366,0.10125,66.34146,0.10125,40.4878,0.2025,-95,0.2025,5.9,0.2025,81.2,0.007788462,0.7166154,0.10125,-48.46683,0.10125,-48.46683,0.10125,-48.46683
0.008307693,0,0.108,-0.5794023,0.108,0.6875504,0.108,0.5254684,0.008307693,0,0.108,-1.014224,0.108,0.4192191,0.108,-0.02035679,0.008307693,0,0.108,-1.753412,0.108,-1.128093,0.108,-0.539744,0.008307693,0,0.108,-1.934624,0.108,1.899608,0.108,-1.933024,0.0144,0,0.108,0.09570313,0.108,-1.087891,0.108,-2.538086,0.108,183.9025,0.108,88.84147,0.108,37.13415,0.216,-95.1,0.216,5.7,0.216,77.9,0.008307693,0.7166154,0.108,-48.46683,0.108,-48.46683,0.108,-48.46683
0.008826924,0,0.11475,-0.4395466,0.11475,0.3801749,0.11475,0.399193,0.008826924,0,0.11475,-1.077121,0.11475,0.05093317,0.11475,0.07328444,0.008826924,0,0.11475,-1.420384,0.11475,-0.8353355,0.11475,-0.7951953,0.008826924,0,0.11475,-1.47079,0.11475,1.573051,0.11475,-1.945181,0.0153,0,0.11475,-0.03613281,0.11475,-0.824707,0.11475,-2.676758,0.11475,114.1463,0.11475,97.19512,0.11475,28.35366,0.2295,-94.7,0.2295,4.8,0.2295,73.7,0.008826924,0.7166154,0.11475,-48.46683,0.11475,-48.46683,0.11475,-48.46683
0.009346154,0,0.1215,-0.4555301,0.1215,0.008088829,0.1215,0.3177251,0.009346154,0,0.1215,-1.112501,0.1215,-0.2860093,0.1215,0.04478494,0.009346154,0,0.1215,-1.424396,0.1215,-0.1600409,0.1215,-0.7045513,0.009346154,0,0.1215,-0.3924749,0.1215,1.15888,0.1215,-1.754716,0.0162,0,0.1215,-0.1225586,0.1215,-0.6005859,0.1215,-2.77832,0.1215,57.56098,0.1215,82.5,0.1215,20.97561,0.243,-94.2,0.243,4.6,0.243,72.7,0.009346154,0.7166154,0.1215,-48.46683,0.1215,-48.46683,0.1215,-48.46683
0.009865385,0,0.12825,-0.4555301,0.12825,-0.3154643,0.12825,0.3177251,0.009865385,0,0.12825,-1.033879,0.12825,-0.4505626,0.12825,0.03257087,0.009865385,0,0.12825,-1.669152,0.12825,0.4762193,0.12825,-0.3872972,0.009865385,0,0.12825,0.02378636,0.12825,1.142951,0.12825,-1.661509,0.0171,0,0.12825,-0.2041016,0.12825,-0.3911133,0.12825,-2.851563,0.12825,-6.280488,0.12825,52.5,0.12825,15.67073,0.2565,-94.2,0.2565,5.2,0.2565,71.8,0.009865385,0.7166154,0.12825,-48.46683,0.12825,-48.46683,0.12825,-48.46683
0.01038462,0,0.135,-0.3556332,0.135,-0.5136406,0.135,0.4114133,0.01038462,0,0.135,-0.9159462,0.135,-0.5367572,0.135,0,0.01038462,0,0.135,-1.837672,0.135,0.8158184,0.135,-0.1730477,0.01038462,0,0.135,-0.09118104,0.135,1.170828,0.135,-1.645299,0.018,0,0.135,-0.2207031,0.135,-0.2963867,0.135,-2.816895,0.135,-71.40244,0.135,30.91463,0.135,9.756098,0.27,-93.9,0.27,4.6,0.27,70.7,0.01038462,0.7166154,0.135,-48.46683,0.135,-48.46683,0.135,-48.46683
0.01090385,0,0.14175,-0.2157774,0.14175,-0.4934185,0.14175,0.5336152,0.01090385,0,0.14175,-0.8609109,0.14175,-0.5720187,0.14175,0.0284995,0.01090385,0,0.14175,-1.777486,0.14175,0.8704665,0.14175,-0.1977688,0.01090385,0,0.14175,-0.463834,0.14175,1.178792,0.14175,-1.568302,0.0189,0,0.14175,-0.1552734,0.14175,-0.3510742,0.14175,-2.758789,0.14175,-138.5366,0.14175,14.45122,0.14175,2.987805,0.2835,-93.5,0.2835,5.1,0.2835,67.1,0.01090385,0.7166154,0.14175,-48.46683,0.14175,-48.46683,0.14175,-48.46683
0.01142308,0,0.1485,-0.1358599,0.1485,-0.2871534,0.1485,0.6273034,0.01142308,0,0.1485,-0.8412553,0.1485,-0.427055,0.1485,0.0773558,0.01142308,0,0.1485,-1.592916,0.1485,0.5699018,0.1485,-0.4532202,0.01142308,0,0.1485,-0.745306,0.1485,1.15888,0.1485,-1.394047,0.0198,0,0.1485,-0.05126953,0.1485,-0.5229492,0.1485,-2.702148,0.1485,-190.6098,0.1485,-10.2439,0.1485,-3.780488,0.297,-93.6,0.297,5.4,0.297,66.6,0.01142308,0.7166154,0.1485,-48.46683,0.1485,-48.46683,0.1485,-48.46683
0.01194231,0,0.15525,-0.2277651,0.15525,0.04448856,0.15525,0.7454318,0.01194231,0,0.15525,-0.8333931,0.15525,0.01567174,0.15525,0.03257087,0.01194231,0,0.15525,-1.360198,0.15525,0.05074468,0.15525,-0.6839504,0.01194231,0,0.15525,-0.8642378,0.15525,1.07525,0.15525,-1.150899,0.0207,0,0.15525,0.08740234,0.15525,-0.8134766,0.15525,-2.525391,0.15525,-233.4756,0.15525,-40.67073,0.15525,-10.91463,0.3105,-92.9,0.3105,5.6,0.3105,62.7,0.01194231,0.7166154,0.15525,-48.46683,0.15525,-48.46683,0.15525,-48.46683
0.01246154,0,0.162,-0.52346,0.162,0.5540847,0.162,0.9735422,0.01246154,0,0.162,-1.081052,0.162,0.669967,0.162,0.06107037,0.01246154,0,0.162,-1.199703,0.162,-0.5425777,0.162,-0.7210321,0.01246154,0,0.162,-0.8206295,0.162,0.9318831,0.162,-0.8915414,0.0216,0,0.162,0.390625,0.162,-1.758301,0.162,0.05419922,0.162,-222.1951,0.162,-82.37805,0.162,-19.39024,0.324,-92.6,0.324,5.8,0.324,62.5,0.01246154,0.7166154,0.162,-48.46683,0.162,-48.46683,0.162,-48.46683
0.01298077,0,0.16875,-1.614335,0.16875,1.488344,0.16875,0.1995965,0.01298077,0,0.16875,-1.698235,0.16875,1.320344,0.16875,0.004071358,0.01298077,0,0.16875,-1.271926,0.16875,-1.104673,0.16875,-0.1977688,0.01298077,0,0.16875,-0.6937689,0.16875,0.7367452,0.16875,-0.729443,0.0225,0,0.16875,0.7773438,0.16875,-5.643066,0.16875,9.256348,0.16875,60.18293,0.16875,-6.52439,0.16875,37.56098,0.3375,-92.7,0.3375,6.2,0.3375,60.2,0.01298077,0.7166154,0.16875,-48.46683,0.16875,-48.46683,0.16875,-48.46683
0.0135,0,0.1755,-1.95798,0.1755,1.140525,0.1755,-1.592699,0.0135,0,0.1755,-1.851548,0.1755,0.8031768,0.1755,-0.9079129,0.0135,0,0.1755,-1.468532,0.1755,-1.362299,0.1755,0.7498734,0.0135,0,0.1755,-0.6224097,0.1755,0.6292202,0.1755,-0.4295609,0.0234,0,0.1755,-0.4423828,0.1755,-4.552734,0.1755,5.184082,0.1755,-90.48781,0.1755,-106.7073,0.1755,23.71951,0.351,-91.8,0.351,6.6,0.351,59.7,0.0135,0.7166154,0.1755,-48.46683,0.1755,-48.46683,0.1755,-48.46683
0.01401923,0,0.18225,-2.001935,0.18225,-1.387234,0.18225,-1.943011,0.01401923,0,0.18225,-1.906583,0.18225,-1.324262,0.18225,-1.669257,0.01401923,0,0.18225,-1.388285,0.18225,-0.9797627,0.18225,1.590391,0.01401923,0,0.18225,-0.9910983,0.18225,0.6570971,0.18225,-0.004052461,0.0243,0,0.18225,1.453613,0.18225,-0.3354492,0.18225,1.078125,0.18225,0.9146342,0.18225,-195.061,0.18225,-53.17073,0.3645,-92.1,0.3645,7,0.3645,59.2,0.01401923,0.7166154,0.18225,-48.46683,0.18225,-48.46683,0.18225,-48.46683
0.01453846,0,0.189,-1.814129,0.189,-2.010074,0.189,-0.9328082,0.01453846,0,0.189,-1.914445,0.189,-1.962886,0.189,-1.909467,0.01453846,0,0.189,-1.04322,0.189,0.9719558,0.189,2.117774,0.01453846,0,0.189,-1.823621,0.189,1.230564,0.189,0.3890362,0.0252,0,0.189,0.894043,0.189,0.4755859,0.189,-1.480957,0.189,-126.2805,0.189,49.69512,0.189,-60.06098,0.378,-91.8,0.378,7,0.378,57.5,0.01453846,0.7166154,0.189,-48.46683,0.189,-48.46683,0.189,-48.46683
0.01505769,0,0.19575,0.06393405,0.19575,-1.900875,0.19575,-0.9083678,0.01505769,0,0.19575,-1.407334,0.19575,-2.04908,0.19575,-1.441261,0.01505769,0,0.19575,-1.737362,0.19575,1.787774,0.19575,2.200178,0.01505769,0,0.19575,-1.970303,0.19575,1.728364,0.19575,0.2917772,0.0261,0,0.19575,1,0.19575,-0.1455078,0.19575,-2.128418,0.19575,-311.0366,0.19575,251.5244,0.19575,-56.82927,0.3915,-91.7,0.3915,7.3,0.3915,58.2,0.01505769,0.7166154,0.19575,-48.46683,0.19575,-48.46683,0.19575,-48.46683
0.01557692,0,0.2025,0.9949737,0.2025,-1.067725,0.2025,-0.4480738,0.01557692,0,0.2025,-0.2201416,0.2025,-1.966804,0.2025,-0.5252052,0.01557692,0,0.2025,-1.909894,0.2025,1.904877,0.2025,1.639833,0.01557692,0,0.2025,-1.213104,0.2025,1.907573,0.2025,-0.5713969,0.027,0,0.2025,0.3671875,0.2025,-1.617188,0.2025,-1.008789,0.2025,-430.4268,0.2025,144.1463,0.2025,-22.07317,0.405,-91.8,0.405,7.2,0.405,57.4,0.01557692,0.7166154,0.2025,-48.46683,0.2025,-48.46683,0.2025,-48.46683
0.01609615,0,0.20925,0.4954889,0.20925,0.02022207,0.20925,-0.1140552,0.01609615,0,0.20925,-0.2712459,0.20925,-0.4035474,0.20925,0.2076393,0.01609615,0,0.20925,-1.837672,0.20925,0.5542881,0.20925,0.473821,0.01609615,0,0.20925,0.3092227,0.20925,1.541191,0.20925,-1.236001,0.0279,0,0.20925,0.2177734,0.20925,-2.464844,0.20925,0.09082031,0.20925,-297.1951,0.20925,-125.7317,0.20925,-25.42683,0.4185,-91.6,0.4185,7.4,0.4185,57.1,0.01609615,0.7166154,0.20925,-48.46683,0.20925,-48.46683,0.20925,-48.46683
0.01661539,0,0.216,-0.3156744,0.216,0.9342597,0.216,0.2729177,0.01661539,0,0.216,-0.8333931,0.216,1.104858,0.216,0,0.01661539,0,0.216,-1.231802,0.216,-1.163224,0.216,0.2760523,0.01661539,0,0.216,0.08325226,0.216,1.792083,0.216,-1.839817,0.0288,0,0.216,0.2851563,0.216,-2.494629,0.216,-0.3154297,0.216,-128.6585,0.216,-374.5732,0.216,-39.7561,0.432,-91,0.432,7.8,0.432,56,0.01661539,0.7166154,0.216,-48.46683,0.216,-48.46683,0.216,-48.46683
0.01713462,0,0.22275,-1.658289,0.22275,1.83212,0.22275,1.197579,0.01713462,0,0.22275,-1.619613,0.22275,1.82184,0.22275,0.1058553,0.01713462,0,0.22275,-0.9990835,0.22275,-1.924394,0.22275,0.3131339,0.01713462,0,0.22275,-0.444012,0.22275,1.891643,0.22275,-1.013115,0.0297,0,0.22275,1.023926,0.22275,-1.541992,0.22275,-1.004883,0.22275,-102.3171,0.22275,-485.5488,0.22275,-83.41463,0.4455,-91.5,0.4455,7.8,0.4455,55.9,0.01713462,0.7166154,0.22275,-48.46683,0.22275,-48.46683,0.22275,-48.46683
0.01765385,0,0.2295,-1.926013,0.2295,1.985807,0.2295,1.095744,0.01765385,0,0.2295,-1.116432,0.2295,1.915871,0.2295,0.1547116,0.01765385,0,0.2295,-0.826551,0.2295,-2.037594,0.2295,-0.3708165,0.01765385,0,0.2295,-0.7809855,0.2295,1.346053,0.2295,0.04052461,0.0306,0,0.2295,0.7504883,0.2295,-1.25293,0.2295,-1.040039,0.2295,-161.7683,0.2295,-225.2439,0.2295,-34.87805,0.459,-91,0.459,8.2,0.459,56.1,0.01765385,0.7166154,0.2295,-48.46683,0.2295,-48.46683,0.2295,-48.46683
0.01817308,0,0.23625,-0.5274559,0.23625,1.104125,0.23625,0.6843309,0.01817308,0,0.23625,0.06289759,0.23625,1.931542,0.23625,0.5659187,0.01817308,0,0.23625,-0.6780928,0.23625,-1.826809,0.23625,-1.297858,0.01817308,0,0.23625,-0.6263741,0.23625,0.852235,0.23625,0.2836723,0.0315,0,0.23625,0.04199219,0.23625,-1.465332,0.23625,-0.4833984,0.23625,-285.5488,0.23625,289.8781,0.23625,43.04878,0.4725,-90.8,0.4725,8.4,0.4725,54.9,0.01817308,0.7166154,0.23625,-48.46683,0.23625,-48.46683,0.23625,-48.46683
0.01869231,0,0.243,0.03995878,0.243,0.7077725,0.243,0.8961476,0.01869231,0,0.243,-0.05503539,0.243,0.9912378,0.243,0.4030645,0.01869231,0,0.243,-0.5938327,0.243,-0.4059574,0.243,-1.80876,0.01869231,0,0.243,-0.08721665,0.243,0.7486924,0.243,0.729443,0.0324,0,0.243,-0.4394531,0.243,-1.140625,0.243,-0.5678711,0.243,-331.8293,0.243,397.8049,0.243,50.67073,0.486,-90.3,0.486,8.3,0.486,54.6,0.01869231,0.7166154,0.243,-48.46683,0.243,-48.46683,0.243,-48.46683
0.01921154,0,0.24975,-0.06792993,0.24975,0.4974629,0.24975,1.189432,0.01921154,0,0.24975,-0.3773856,0.24975,0.5602648,0.24975,0.5129911,0.01921154,0,0.24975,-0.429325,0.24975,1.081252,0.24975,-1.903525,0.01921154,0,0.24975,0.4043681,0.24975,0.3066453,0.24975,1.025273,0.0333,0,0.24975,-0.6884766,0.24975,-0.7685547,0.24975,-0.4316406,0.24975,-243.0488,0.24975,212.9268,0.24975,31.09756,0.4995,-90.5,0.4995,8.5,0.4995,54.3,0.01921154,0.7166154,0.24975,-48.46683,0.24975,-48.46683,0.24975,-48.46683
0.01973077,0,0.2565,-0.4155713,0.2565,0.2183984,0.2565,1.205726,0.01973077,0,0.2565,-0.5818027,0.2565,0.795341,0.2565,0.65956,0.01973077,0,0.2565,-0.3611145,0.2565,1.779967,0.2565,-1.615112,0.01973077,0,0.2565,0.4122969,0.2565,-0.3464693,0.2565,1.00501,0.0342,0,0.2565,-0.9775391,0.2565,-0.7099609,0.2565,-0.7602539,0.2565,-153.4756,0.2565,36.70732,0.2565,25.79268,0.513,-90.4,0.513,8.6,0.513,53,0.01973077,0.7166154,0.2565,-48.46683,0.2565,-48.46683,0.2565,-48.46683
0.02025,0,0.26325,-0.8151591,0.26325,-0.0283109,0.26325,1.307561,0.02025,0,0.26325,-0.9631194,0.26325,1.042171,0.26325,0.4397067,0.02025,0,0.26325,-0.4213003,0.26325,1.377913,0.26325,-1.161892,0.02025,0,0.26325,0,0.26325,-1.07525,0.26325,1.203581,0.0351,0,0.26325,-1.208984,0.26325,-0.7338867,0.26325,-1.562988,0.26325,-180.2439,0.26325,26.34146,0.26325,41.15854,0.5265,-89.8,0.5265,8.4,0.5265,52.7,0.02025,0.7166154,0.26325,-48.46683,0.26325,-48.46683,0.26325,-48.46683
0.02076923,0,0.27,-1.458496,0.27,-0.2183984,0.27,1.604919,0.02076923,0,0.27,-1.654993,0.27,0.8227665,0.27,0.3745649,0.02076923,0,0.27,-0.3972259,0.27,0.5738052,0.27,-0.9517623,0.02076923,0,0.27,-1.193282,0.27,-1.915538,0.27,1.260315,0.036,0,0.27,-0.4179688,0.27,-1.33252,0.27,-1.405273,0.27,-250.7927,0.27,-98.84147,0.27,-2.621951,0.54,-89.3,0.54,8.2,0.54,51.4,0.02076923,0.7166154,0.27,-48.46683,0.27,-48.46683,0.27,-48.46683
0.02128846,0,0.27675,-1.878063,0.27675,-0.3437752,0.27675,1.466423,0.02128846,0,0.27675,-1.560647,0.27675,0.669967,0.27675,0.6066324,0.02128846,0,0.27675,-0.5898204,0.27675,-0.06245499,0.27675,-1.063007,0.02128846,0,0.27675,-1.883087,0.27675,-2.03501,0.27675,0.3647215,0.0369,0,0.27675,0.324707,0.27675,-2.14502,0.27675,-0.5703125,0.27675,-152.1342,0.27675,-314.8781,0.27675,-37.86586,0.5535,-89.3,0.5535,8.5,0.5535,51.2,0.02128846,0.7166154,0.27675,-48.46683,0.27675,-48.46683,0.27675,-48.46683
0.02180769,0,0.2835,-1.554397,0.2835,-0.3842193,0.2835,0.8676339,0.02180769,0,0.2835,-1.077121,0.2835,1.097022,0.2835,0.3827077,0.02180769,0,0.2835,-0.9870464,0.2835,-0.3005646,0.2835,-1.236055,0.02180769,0,0.2835,-1.978232,0.2835,-1.186757,0.2835,-0.6402888,0.0378,0,0.2835,0.5908203,0.2835,-1.967773,0.2835,-0.609375,0.2835,-24.81707,0.2835,-331.7683,0.2835,-19.63415,0.567,-87.9,0.567,8.4,0.567,50.3,0.02180769,0.7166154,0.2835,-48.46683,0.2835,-48.46683,0.2835,-48.46683
0.02232692,0,0.29025,-1.178784,0.29025,0.1213324,0.29025,0.6313767,0.02232692,0,0.29025,-0.8294621,0.29025,1.379113,0.29025,0.06514173,0.02232692,0,0.29025,-1.219765,0.29025,-0.4098609,0.29025,-1.145411,0.02232692,0,0.29025,-1.990125,0.29025,-0.1194722,0.29025,-0.2431476,0.0387,0,0.29025,0.53125,0.29025,-1.197754,0.29025,-0.8349609,0.29025,-46.40244,0.29025,-171.9512,0.29025,0.4268293,0.5805,-87.7,0.5805,8.2,0.5805,50,0.02232692,0.7166154,0.29025,-48.46683,0.29025,-48.46683,0.29025,-48.46683
0.02284615,0,0.297,-1.010957,0.297,1.043459,0.297,0.8146796,0.02284615,0,0.297,-0.6761491,0.297,1.155791,0.297,0.04478494,0.02284615,0,0.297,-1.19569,0.297,-0.7104255,0.297,-0.7704743,0.02284615,0,0.297,-1.79587,0.297,0.2389444,0.297,0.1175214,0.0396,0,0.297,0.2177734,0.297,-0.8022461,0.297,-0.4858398,0.297,-145.2439,0.297,46.52439,0.297,25.79268,0.594,-86.9,0.594,7.8,0.594,48,0.02284615,0.7166154,0.297,-48.46683,0.297,-48.46683,0.297,-48.46683
0.02336538,0,0.30375,-0.6633158,0.30375,1.581366,0.30375,0.818753,0.02336538,0,0.30375,-0.8215998,0.30375,1.046089,0.30375,0.03257087,0.02336538,0,0.30375,-0.983034,0.30375,-1.350589,0.30375,-0.2884128,0.02336538,0,0.30375,-1.189318,0.30375,0.3743462,0.30375,0.2472001,0.0405,0.001136507,0.30375,0.07080078,0.30375,-0.9575195,0.30375,-0.2202148,0.30375,-182.9878,0.30375,109.2683,0.30375,27.92683,0.6075,-85.9,0.6075,8,0.6075,46.8,0.02336538,0.7166154,0.30375,-48.46683,0.30375,-48.46683,0.30375,-48.46683
0.02388461,0,0.3105,-0.6273529,0.3105,1.108169,0.3105,0.4317802,0.02388461,0,0.3105,-0.8412553,0.3105,1.061761,0.3105,-0.1221407,0.02388461,0,0.3105,-0.7061795,0.3105,-1.928298,0.3105,0.02060091,0.02388461,0,0.3105,-0.6580893,0.3105,0.597361,0.3105,0.413351,0.0414,0.001117037,0.3105,-0.015625,0.3105,-1.128418,0.3105,-0.2714844,0.3105,-152.5,0.3105,38.53659,0.3105,24.45122,0.621,-85.2,0.621,8.1,0.621,46.5,0.02388461,0.7166154,0.3105,-48.46683,0.3105,-48.46683,0.3105,-48.46683
0.02440385,0,0.31725,-0.9230479,0.31725,0.6430619,0.31725,0.3625324,0.02440385,0,0.31725,-0.7783577,0.31725,0.728736,0.31725,-0.3094232,0.02440385,0,0.31725,-0.5456842,0.31725,-2.037594,0.31725,-0.02060091,0.02440385,0,0.31725,-0.6382673,0.31725,0.6690443,0.31725,0.3160919,0.0423,0.001096559,0.31725,0.05566406,0.31725,-1.180664,0.31725,-0.3911133,0.31725,-95.48781,0.31725,-75.12196,0.31725,15,0.6345,-84.4,0.6345,7.8,0.6345,44.6,0.02440385,0.7166154,0.31725,-48.46683,0.31725,-48.46683,0.31725,-48.46683
0.02492308,0,0.324,-1.126838,0.324,0.2992866,0.324,0.460294,0.02492308,0,0.324,-0.868773,0.324,0.4701523,0.324,-0.3664222,0.02492308,0,0.324,-0.6219195,0.324,-1.99856,0.324,-0.2636917,0.02492308,0,0.324,-0.7373772,0.324,0.4380647,0.324,-0.0202623,0.0432,0.001071382,0.324,0.1879883,0.324,-1.254395,0.324,-0.3393555,0.324,-63.04878,0.324,-124.8171,0.324,13.65854,0.648,-82.9,0.648,7.6,0.648,43.8,0.02492308,0.7166154,0.324,-48.46683,0.324,-48.46683,0.324,-48.46683
0.02544231,0,0.33075,-1.206755,0.33075,0.09302153,0.33075,0.4847344,0.02544231,0,0.33075,-0.9316706,0.33075,0.3917936,0.33075,-0.1832111,0.02544231,0,0.33075,-0.846613,0.33075,-1.479403,0.33075,-0.4243789,0.02544231,0,0.33075,-0.7532347,0.33075,0.2230148,0.33075,-0.2066755,0.0441,0.001047883,0.33075,0.1479492,0.33075,-1.242188,0.33075,-0.2700195,0.33075,-66.52439,0.33075,-82.5,0.33075,19.5122,0.6615,-81.6,0.6615,7.6,0.6615,41.5,0.02544231,0.7166154,0.33075,-48.46683,0.33075,-48.46683,0.33075,-48.46683
0.02596154,0,0.3375,-1.162801,0.3375,-0.04044414,0.3375,0.4684408,0.02596154,0,0.3375,-0.9513261,0.3375,0.3408605,0.3375,-0.08142716,0.02596154,0,0.3375,-1.007108,0.3375,-0.9095008,0.3375,-0.4243789,0.02596154,0,0.3375,-0.7611635,0.3375,0.04380647,0.3375,-0.2472001,0.045,0.001025727,0.3375,0.02587891,0.3375,-1.164063,0.3375,-0.2470703,0.3375,-83.65854,0.3375,-33.71951,0.3375,19.5122,0.675,-79.5,0.675,7,0.675,40,0.02596154,0.7166154,0.3375,-48.46683,0.3375,-48.46683,0.3375,-48.46683
0.02648077,0,0.34425,-1.118846,0.34425,-0.06471063,0.34425,0.4562206,0.02648077,0,0.34425,-0.9631194,0.34425,0.3251887,0.34425,-0.0488563,0.02648077,0,0.34425,-1.059269,0.34425,-0.4801227,0.34425,-0.3625761,0.02648077,0,0.34425,-0.8721665,0.34425,-0.01194722,0.34425,-0.09320661,0.0459,0.001000885,0.34425,-0.0546875,0.34425,-1.134766,0.34425,-0.2026367,0.34425,-84.32927,0.34425,-30.36585,0.34425,11.95122,0.6885,-78.2,0.6885,7,0.6885,39.5,0.02648077,0.7166154,0.34425,-48.46683,0.34425,-48.46683,0.34425,-48.46683
0.027,0,0.351,-1.090875,0.351,-0.02426649,0.351,0.460294,0.027,0,0.351,-0.9316706,0.351,0.3408605,0.351,-0.03257087,0.027,0,0.351,-1.051244,0.351,-0.1717512,0.351,-0.3955376,0.027,0,0.351,-1.078315,0.351,0.1194722,0.351,0.1499411,0.0468,0.0009740291,0.351,-0.08105469,0.351,-1.138672,0.351,-0.2226563,0.351,-63.84146,0.351,-70.42683,0.351,3.902439,0.702,-73.9,0.702,6.7,0.702,35.6,0.027,0.7166154,0.351,-48.46683,0.351,-48.46683,0.351,-48.46683
0.02751923,0,0.35775,-1.070895,0.35775,0.02022207,0.35775,0.4765876,0.02751923,0,0.35775,-0.9277395,0.35775,0.4035474,0.35775,0.0488563,0.02751923,0,0.35775,-1.039207,0.35775,0.1444272,0.35775,-0.5067825,0.02751923,0,0.35775,-1.284463,0.35775,0.2986805,0.35775,0.2269378,0.0477,0.0009525444,0.35775,-0.08398438,0.35775,-1.13623,0.35775,-0.2148438,0.35775,-47.56098,0.35775,-92.92683,0.35775,-0.2439024,0.7155,-71.8,0.7155,7.2,0.7155,33.2,0.02751923,0.7166154,0.35775,-48.46683,0.35775,-48.46683,0.35775,-48.46683
0.02803846,0,0.3645,-1.058908,0.3645,0.0849327,0.3645,0.480661,0.02803846,0,0.3645,-0.9709817,0.3645,0.5406752,0.3645,0.1506402,0.02803846,0,0.3645,-0.9990835,0.3645,0.4957365,0.3645,-0.6551092,0.02803846,0,0.3645,-1.40736,0.3645,0.3743462,0.3645,0.07699676,0.0486,0.0009277028,0.3645,-0.05859375,0.3645,-1.133789,0.3645,-0.2011719,0.3645,-46.40244,0.3645,-80.60976,0.3645,-2.560976,0.729,-69.3,0.729,7.4,0.729,32.8,0.02803846,0.7166154,0.3645,-48.46683,0.3645,-48.46683,0.3645,-48.46683
0.02855769,0,0.37125,-1.050916,0.37125,0.1536877,0.37125,0.4765876,0.02855769,0,0.37125,-1.006361,0.37125,0.6464595,0.37125,0.1791397,0.02855769,0,0.37125,-0.9268606,0.37125,0.7923977,0.37125,-0.7086715,0.02855769,0,0.37125,-1.387538,0.37125,0.3066453,0.37125,-0.1539935,0.0495,0.0009031967,0.37125,-0.01074219,0.37125,-1.126953,0.37125,-0.1757813,0.37125,-48.23171,0.37125,-56.89024,0.37125,-4.512195,0.7425,-66.7,0.7425,7.9,0.7425,31.2,0.02855769,0.7166154,0.37125,-48.46683,0.37125,-48.46683,0.37125,-48.46683
0.02907692,0,0.378,-1.058908,0.378,0.2386204,0.378,0.4440004,0.02907692,0,0.378,-1.026017,0.378,0.6425415,0.378,0.1832111,0.02907692,0,0.378,-0.8024767,0.378,0.9407283,0.378,-0.6715899,0.02907692,0,0.378,-1.217069,0.378,0.2031027,0.378,-0.3160919,0.0504,0.000877348,0.378,0.01904297,0.378,-1.129883,0.378,-0.1831055,0.378,-45.73171,0.378,-45.79268,0.378,-4.634146,0.756,-64.1,0.756,4.8,0.756,31.5,0.02907692,0.7166154,0.378,-48.46683,0.378,-48.46683,0.378,-48.46683
0.02959615,0,0.38475,-1.062904,0.38475,0.3033311,0.38475,0.4073398,0.02959615,0,0.38475,-1.022086,0.38475,0.6268697,0.38475,0.158783,0.02959615,0,0.38475,-0.6861175,0.38475,0.8977906,0.38475,-0.5438642,0.02959615,0,0.38475,-0.9910983,0.38475,0.1831907,0.38475,-0.3444592,0.0513,0.0008551918,0.38475,0.03662109,0.38475,-1.10791,0.38475,-0.2099609,0.38475,-40.79268,0.38475,-44.02439,0.38475,-0.4878049,0.7695,-61,0.7695,3.4,0.7695,31.4,0.02959615,0.7166154,0.38475,-48.46683,0.38475,-48.46683,0.38475,-48.46683
0.03011538,0,0.3915,-1.04692,0.3915,0.3518641,0.3915,0.3543857,0.03011538,0,0.3915,-1.006361,0.3915,0.6386236,0.3915,0.08142716,0.03011538,0,0.3915,-0.6500062,0.3915,0.6909084,0.3915,-0.428499,0.03011538,0,0.3915,-0.8325226,0.3915,0.2588564,0.3915,-0.2796198,0.0522,0.0008347143,0.3915,0.04345703,0.3915,-1.090332,0.3915,-0.2045898,0.3915,-37.13415,0.3915,-39.02439,0.3915,2.865854,0.783,-59.3,0.783,5.4,0.783,30.9,0.03011538,0.7166154,0.3915,-48.46683,0.3915,-48.46683,0.3915,-48.46683
0.03063462,0,0.39825,-1.030937,0.39825,0.3801749,0.39825,0.2932847,0.03063462,0,0.39825,-0.9631194,0.39825,0.6307877,0.39825,0.03257087,0.03063462,0,0.39825,-0.7262415,0.39825,0.4176677,0.39825,-0.3708165,0.03063462,0,0.39825,-0.7809855,0.39825,0.3703638,0.39825,-0.1702034,0.0531,0.0008115511,0.39825,0.02490234,0.39825,-1.069336,0.39825,-0.1660156,0.39825,-34.5122,0.39825,-23.10976,0.39825,6.219512,0.7965,-58.1,0.7965,8.5,0.7965,26.9,0.03063462,0.7166154,0.39825,-48.46683,0.39825,-48.46683,0.39825,-48.46683
0.03115385,0,0.405,-1.014953,0.405,0.3842193,0.405,0.2444039,0.03115385,0,0.405,-0.9356017,0.405,0.5563469,0.405,-0.05699901,0.03115385,0,0.405,-0.8907492,0.405,0.12491,0.405,-0.3460954,0.03115385,0,0.405,-0.7690923,0.405,0.4739064,0.405,-0.09725906,0.054,0.000789395,0.405,-0.006835938,0.405,-1.07666,0.405,-0.07373047,0.405,-33.59756,0.405,-12.2561,0.405,7.073171,0.81,-56.9,0.81,7.9,0.81,28.4,0.03115385,0.7166154,0.405,-48.46683,0.405,-48.46683,0.405,-48.46683
0.03167308,0,0.41175,-1.038928,0.41175,0.3680417,0.41175,0.1710827,0.03167308,0,0.41175,-0.943464,0.41175,0.4348909,0.41175,-0.1384262,0.03167308,0,0.41175,-1.039207,0.41175,-0.12491,0.41175,-0.2719321,0.03167308,0,0.41175,-0.7770211,0.41175,0.509748,0.41175,-0.09320661,0.0549,0.0007719387,0.41175,-0.01074219,0.41175,-1.09375,0.41175,-0.05615234,0.41175,-30.79268,0.41175,-18.96342,0.41175,6.280488,0.8235,-56.4,0.8235,7.9,0.8235,28.9,0.03167308,0.7166154,0.41175,-48.46683,0.41175,-48.46683,0.41175,-48.46683
0.03219231,0,0.4185,-1.070895,0.4185,0.283109,0.4185,0.101835,0.03219231,0,0.4185,-0.9591883,0.4185,0.2742555,0.4185,-0.2117106,0.03219231,0,0.4185,-1.135504,0.4185,-0.339599,0.4185,-0.1730477,0.03219231,0,0.4185,-0.7928786,0.4185,0.4739064,0.4185,-0.1742558,0.0558,0.0007517968,0.4185,0.01367188,0.4185,-1.089844,0.4185,-0.06201172,0.4185,-27.37805,0.4185,-31.64634,0.4185,4.939024,0.837,-57.5,0.837,9.4,0.837,28.6,0.03219231,0.7166154,0.4185,-48.46683,0.4185,-48.46683,0.4185,-48.46683
0.03271154,0,0.42525,-1.082883,0.42525,0.165821,0.42525,0.03666059,0.03271154,0,0.42525,-0.9709817,0.42525,0.1097022,0.42525,-0.2687096,0.03271154,0,0.42525,-1.147542,0.42525,-0.4918331,0.42525,-0.0988844,0.03271154,0,0.42525,-0.8047718,0.42525,0.3902759,0.42525,-0.2755674,0.0567,0.0007296407,0.42525,0.05517578,0.42525,-1.09375,0.42525,-0.06396484,0.42525,-24.81707,0.42525,-40.36586,0.42525,4.878049,0.8505,-59,0.8505,9.7,0.8505,29,0.03271154,0.7166154,0.42525,-48.46683,0.42525,-48.46683,0.42525,-48.46683
0.03323077,0,0.432,-1.074891,0.432,0.02022207,0.432,0,0.03323077,0,0.432,-0.9591883,0.432,-0.03134349,0.432,-0.3216373,0.03323077,0,0.432,-1.075319,0.432,-0.5659984,0.432,-0.1030046,0.03323077,0,0.432,-0.8285582,0.432,0.3385046,0.432,-0.3120395,0.0576,0.0007148699,0.432,0.07373047,0.432,-1.093262,0.432,-0.03417969,0.432,-24.02439,0.432,-40.42683,0.432,5.243903,0.864,-60.6,0.864,8.9,0.864,30,0.03323077,0.7166154,0.432,-48.46683,0.432,-48.46683,0.432,-48.46683
0.03375,0,0.43875,-1.042924,0.43875,-0.1051548,0.43875,-0.04073398,0.03375,0,0.43875,-0.9120151,0.43875,-0.1371278,0.43875,-0.3175659,0.03375,0,0.43875,-0.9388978,0.43875,-0.5659984,0.43875,-0.1153651,0.03375,0,0.43875,-0.8523446,0.43875,0.3265573,0.43875,-0.2755674,0.0585,0.0006979172,0.43875,0.08642578,0.43875,-1.072266,0.43875,-0.005859375,0.43875,-25.30488,0.43875,-36.95122,0.43875,5.304878,0.8775,-62.5,0.8775,8.9,0.8775,31.4,0.03375,0.7166154,0.43875,-48.46683,0.43875,-48.46683,0.43875,-48.46683
0.03426923,0,0.4455,-1.022945,0.4455,-0.2062651,0.4455,-0.07332117,0.03426923,0,0.4455,-0.8884284,0.4455,-0.2076506,0.4455,-0.2931378,0.03426923,0,0.4455,-0.8385882,0.4455,-0.464509,0.4455,-0.1606871,0.03426923,0,0.4455,-0.8523446,0.4455,0.3265573,0.4455,-0.1864132,0.0594,0.0006792859,0.4455,0.06884766,0.4455,-1.060547,0.4455,0.001464844,0.4455,-27.80488,0.4455,-33.65854,0.4455,4.634146,0.891,-64.1,0.891,8.5,0.891,32.8,0.03426923,0.7166154,0.4455,-48.46683,0.4455,-48.46683,0.4455,-48.46683
0.03478846,0,0.45225,-1.006961,0.45225,-0.2426648,0.45225,-0.08554137,0.03478846,0,0.45225,-0.8727041,0.45225,-0.2076506,0.45225,-0.3053519,0.03478846,0,0.45225,-0.8105015,0.45225,-0.2966612,0.45225,-0.1771679,0.03478846,0,0.45225,-0.8404514,0.45225,0.3385046,0.45225,-0.1134689,0.0603,0.0006645152,0.45225,0.05126953,0.45225,-1.030273,0.45225,0.005859375,0.45225,-30.85366,0.45225,-31.09756,0.45225,4.634146,0.9045,-66.7,0.9045,7.6,0.9045,34.6,0.03478846,0.7166154,0.45225,-48.46683,0.45225,-48.46683,0.45225,-48.46683
0.03530769,0,0.459,-0.9909778,0.459,-0.2224428,0.459,-0.07739457,0.03530769,0,0.459,-0.8412553,0.459,-0.1880609,0.459,-0.2646383,0.03530769,0,0.459,-0.8506253,0.459,-0.07806874,0.459,-0.1318459,0.03530769,0,0.459,-0.8206295,0.459,0.3663814,0.459,-0.0729443,0.0612,0.0006497444,0.459,0.02587891,0.459,-0.9824219,0.459,-0.0004882813,0.459,-35.54878,0.459,-29.26829,0.459,5.97561,0.918,-69.1,0.918,6.4,0.918,36.7,0.03530769,0.7166154,0.459,-48.46683,0.459,-48.46683,0.459,-48.46683
0.03582693,0,0.46575,-0.9470232,0.46575,-0.1536877,0.46575,-0.08146796,0.03582693,0,0.46575,-0.8373243,0.46575,-0.125374,0.46575,-0.215782,0.03582693,0,0.46575,-0.9429101,0.46575,0.1483306,0.46575,-0.07004312,0.03582693,0,0.46575,-0.8008075,0.46575,0.4022231,0.46575,-0.05673445,0.0621,0.0006353094,0.46575,0.007324219,0.46575,-0.9755859,0.46575,-0.02294922,0.46575,-40.54878,0.46575,-23.41463,0.46575,7.5,0.9315,-71.2,0.9315,4.8,0.9315,38.5,0.03582693,0.7166154,0.46575,-48.46683,0.46575,-48.46683,0.46575,-48.46683
0.03634615,0,0.4725,-0.9310396,0.4725,-0.0566218,0.4725,-0.07332117,0.03634615,0,0.4725,-0.8530486,0.4725,-0.04701523,0.4725,-0.2646383,0.03634615,0,0.4725,-1.007108,0.4725,0.3005646,0.4725,-0.04532201,0.03634615,0,0.4725,-0.7928786,0.4725,0.4460295,0.4725,-0.06078691,0.063,0.0006208743,0.4725,0.01611328,0.4725,-0.9863281,0.4725,-0.01318359,0.4725,-44.63415,0.4725,-18.78049,0.4725,7.926829,0.945,-74.3,0.945,3.4,0.945,41.2,0.03634615,0.7166154,0.4725,-48.46683,0.4725,-48.46683,0.4725,-48.46683
0.03686538,0,0.47925,-0.9310396,0.47925,0.02426649,0.47925,-0.07332117,0.03686538,0,0.47925,-0.868773,0.47925,-0.02350762,0.47925,-0.2524242,0.03686538,0,0.47925,-1.023158,0.47925,0.3474059,0.47925,-0.03296147,0.03686538,0,0.47925,-0.7889143,0.47925,0.4778888,0.47925,-0.09320661,0.0639,0.000606775,0.47925,0.01464844,0.47925,-1.013184,0.47925,-0.006835938,0.47925,-48.29268,0.47925,-16.95122,0.47925,8.47561,0.9585,-76.3,0.9585,2,0.9585,43.1,0.03686538,0.7166154,0.47925,-48.46683,0.47925,-48.46683,0.47925,-48.46683
0.03738461,0,0.486,-0.9430273,0.486,0.07279946,0.486,-0.08554137,0.03738461,0,0.486,-0.8805663,0.486,-0.01567174,0.486,-0.215782,0.03738461,0,0.486,-0.9950712,0.486,0.3044681,0.486,-0.06180275,0.03738461,0,0.486,-0.7849499,0.486,0.4978008,0.486,-0.1337312,0.0648,0.0005970398,0.486,0.02197266,0.486,-1.002441,0.486,-0.05371094,0.486,-51.15854,0.486,-16.15854,0.486,9.634147,0.972,-82.5,0.972,0.7,0.972,49.9,0.03738461,0.7166154,0.486,-48.46683,0.486,-48.46683,0.486,-48.46683
0.03790385,0,0.49275,-0.951019,0.49275,0.09302153,0.49275,-0.08554137,0.03790385,0,0.49275,-0.9002218,0.49275,0.01958968,0.49275,-0.1994965,0.03790385,0,0.49275,-0.9589597,0.49275,0.2107856,0.49275,-0.09476422,0.03790385,0,0.49275,-0.8047718,0.49275,0.52966,0.49275,-0.1702034,0.0657,0.0005842833,0.49275,0.02978516,0.49275,-1.012207,0.49275,-0.08984375,0.49275,-55.36586,0.49275,-13.84146,0.49275,12.31707,0.9855,-84.6,0.9855,0.6,0.9855,52.6,0.03790385,0.7166154,0.49275,-48.46683,0.49275,-48.46683,0.49275,-48.46683
0.03842308,0,0.4995,-0.9590108,0.4995,0.1091992,0.4995,-0.04480738,0.03842308,0,0.4995,-0.9277395,0.4995,0.07835872,0.4995,-0.2117106,0.03842308,0,0.4995,-0.9549472,0.4995,0.1053928,0.4995,-0.1236055,0.03842308,0,0.4995,-0.8285582,0.4995,0.5495721,0.4995,-0.202623,0.0666,0.0005705196,0.4995,0.03759766,0.4995,-1.022461,0.4995,-0.1147461,0.4995,-59.5122,0.4995,-10.73171,0.4995,14.32927,0.999,-87.4,0.999,-0.2,0.999,57.4,0.03842308,0.7166154,0.4995,-48.46683,0.4995,-48.46683,0.4995,-48.46683
0.03894231,0,0.50625,-0.9709984,0.50625,0.1132436,0.50625,0.02851379,0.03894231,0,0.50625,-0.9041529,0.50625,0.1332098,0.50625,-0.2035679,0.03894231,0,0.50625,-0.9469225,0.50625,0.01951719,0.50625,-0.1442064,0.03894231,0,0.50625,-0.8523446,0.50625,0.5495721,0.50625,-0.2350427,0.0675,0.0005621271,0.50625,0.02832031,0.50625,-1.04248,0.50625,-0.1010742,0.50625,-63.59756,0.50625,-2.134146,0.50625,15.60976,1.0125,-88.9,1.0125,0.2,1.0125,61,0.03894231,0.7166154,0.50625,-48.46683,0.50625,-48.46683,0.50625,-48.46683
0.03946154,0,0.513,-0.982986,0.513,0.1011104,0.513,0.06517437,0.03946154,0,0.513,-0.8962907,0.513,0.1684712,0.513,-0.1913538,0.03946154,0,0.513,-0.9549472,0.513,-0.01951719,0.513,-0.1771679,0.03946154,0,0.513,-0.8840597,0.513,0.5376249,0.513,-0.2431476,0.0684,0.0005523919,0.513,0.02685547,0.513,-1.056641,0.513,-0.09570313,0.513,-67.86585,0.513,9.02439,0.513,15.79268,1.026,-90.6,1.026,0.1,1.026,66.9,0.03946154,0.7166154,0.513,-48.46683,0.513,-48.46683,0.513,-48.46683
0.03998077,0,0.51975,-0.9909778,0.51975,0.07279946,0.51975,0.05702758,0.03998077,0,0.51975,-0.8884284,0.51975,0.1763071,0.51975,-0.215782,0.03998077,0,0.51975,-0.9669845,0.51975,-0.02342062,0.51975,-0.1895284,0.03998077,0,0.51975,-0.8919885,0.51975,0.5057656,0.51975,-0.2309903,0.0693,0.000539971,0.51975,0.015625,0.51975,-1.050781,0.51975,-0.1435547,0.51975,-71.34147,0.51975,15.2439,0.51975,15.97561,1.0395,-91.8,1.0395,-0.1,1.0395,69.8,0.03998077,0.7166154,0.51975,-48.46683,0.51975,-48.46683,0.51975,-48.46683
0.0405,-5.320821E-05,0.5265,-0.9909778,0.5265,0.0566218,0.5265,0.05295418,0.0405,-3.457694E-05,0.5265,-0.8923596,0.5265,0.1527995,0.5265,-0.2035679,0.0405,1.896696E-05,0.5265,-0.962972,0.5265,-0.01171031,0.5265,-0.1854082,0.0405,3.860533E-06,0.5265,-0.8959529,0.5265,0.4938184,0.5265,-0.1864132,0.0702,0.0005315786,0.5265,0.02099609,0.5265,-1.039063,0.5265,-0.1616211,0.5265,-74.69512,0.5265,19.81707,0.5265,16.15854,1.053,-92.4,1.053,-0.2,1.053,73.7,0.0405,-48.46683,0.5265,-48.46683,0.5265,-48.46683,0.5265,-48.46683
0.04101923,-6.009003E-05,0.53325,-0.9909778,0.53325,0.06471063,0.53325,0.07332117,0.04101923,-3.105211E-05,0.53325,-0.9041529,0.53325,0.1097022,0.53325,-0.1221407,0.04101923,2.131685E-05,0.53325,-0.9388978,0.53325,0.01561375,0.53325,-0.2060092,0.04101923,6.378271E-06,0.53325,-0.8602733,0.53325,0.4858536,0.53325,-0.1337312,0.0711,0.000525536,0.53325,0.02832031,0.53325,-1.047363,0.53325,-0.1376953,0.53325,-77.43903,0.53325,21.76829,0.53325,15.2439,1.0665,-92.5,1.0665,0.4,1.0665,80,0.04101923,-48.46683,0.53325,-48.46683,0.53325,-48.46683,0.53325,-48.46683
0.04153846,-5.052262E-05,0.54,-0.9869819,0.54,0.0566218,0.54,0.08961476,0.04153846,-2.769513E-05,0.54,-0.9238085,0.54,0.09794839,0.54,-0.1628543,0.04153846,2.366674E-05,0.54,-0.9108111,0.54,0.04684125,0.54,-0.2266101,0.04153846,1.05745E-05,0.54,-0.8047718,0.54,0.4858536,0.54,-0.1215738,0.072,0.000515465,0.54,0.01416016,0.54,-1.055664,0.54,-0.1289063,0.54,-79.69512,0.54,24.39024,0.54,13.71951,1.08,-92.3,1.08,0.8,1.08,82.6,0.04153846,-48.46683,0.54,-48.46683,0.54,-48.46683,0.54,-48.46683
0.04205769,-3.575189E-05,0.54675,-0.9989696,0.54675,0.05257739,0.54675,0.08961476,0.04205769,-2.618448E-05,0.54675,-0.9316706,0.54675,0.1371278,0.54675,-0.1384262,0.04205769,2.333105E-05,0.54675,-0.9027863,0.54675,0.12491,0.54675,-0.2348504,0.04205769,1.326009E-05,0.54675,-0.745306,0.54675,0.489836,0.54675,-0.1539935,0.0729,0.0005047226,0.54675,-0.01513672,0.54675,-1.040527,0.54675,-0.1650391,0.54675,-84.93903,0.54675,31.40244,0.54675,12.80488,1.0935,-92.4,1.0935,0.8,1.0935,86,0.04205769,-48.46683,0.54675,-48.46683,0.54675,-48.46683,0.54675,-48.46683
0.04257692,-1.997406E-05,0.5535,-0.9869819,0.5535,0.03639973,0.5535,0.06924777,0.04257692,-2.735943E-05,0.5535,-0.9159462,0.5535,0.121456,0.5535,-0.0773558,0.04257692,2.064546E-05,0.5535,-0.9469225,0.5535,0.1990753,0.5535,-0.2183697,0.04257692,1.661708E-05,0.5535,-0.68584,0.5535,0.5137305,0.5535,-0.202623,0.07380001,0.0005011978,0.5535,-0.02929688,0.5535,-1.058105,0.5535,-0.1523438,0.5535,-91.58537,0.5535,37.68293,0.5535,12.92683,1.107,-91.2,1.107,2.3,1.107,89.2,0.04257692,-48.46683,0.5535,-48.46683,0.5535,-48.46683,0.5535,-48.46683
0.04309615,-5.052262E-05,0.56025,-0.9869819,0.56025,0.008088829,0.56025,0.06517437,0.04309615,-3.155566E-05,0.56025,-0.943464,0.56025,0.09011253,0.56025,-0.08549851,0.04309615,1.997406E-05,0.56025,-0.9790215,0.56025,0.2693371,0.56025,-0.1936486,0.04309615,2.131685E-05,0.56025,-0.6501606,0.56025,0.5615193,0.56025,-0.2228853,0.07470001,0.0004926375,0.56025,-0.06201172,0.56025,-1.098633,0.56025,-0.06884766,0.56025,-96.15854,0.56025,43.65854,0.56025,12.13415,1.1205,-91.7,1.1205,2.5,1.1205,89.8,0.04309615,-48.46683,0.56025,-48.46683,0.56025,-48.46683,0.56025,-48.46683
0.04361539,-0.0001132982,0.567,-1.018949,0.567,-0.04044414,0.567,0.004073398,0.04361539,-3.508049E-05,0.567,-0.9552573,0.567,0.03526143,0.567,-0.1424975,0.04361539,1.963836E-05,0.567,-1.011121,0.567,0.3200818,0.567,-0.135966,0.04361539,2.349889E-05,0.567,-0.6303385,0.567,0.617273,0.567,-0.2512526,0.0756,0.0004849165,0.567,-0.04931641,0.567,-1.095215,0.567,-0.04101563,0.567,-100.3049,0.567,39.63415,0.567,12.43902,1.134,-92,1.134,2.4,1.134,88.6,0.04361539,-48.46683,0.567,-48.46683,0.567,-48.46683,0.567,-48.46683
0.04413462,-0.0001475395,0.57375,-1.026941,0.57375,-0.1051548,0.57375,-0.05702758,0.04413462,-3.508049E-05,0.57375,-0.943464,0.57375,-0.07444078,0.57375,-0.1750684,0.04413462,1.577783E-05,0.57375,-0.9990835,0.57375,0.3356956,0.57375,-0.04532201,0.04413462,2.165255E-05,0.57375,-0.6898044,0.57375,0.6332027,0.57375,-0.3241968,0.0765,0.0004748455,0.57375,-0.009277344,0.57375,-1.057129,0.57375,-0.04980469,0.57375,-105.061,0.57375,35.85366,0.57375,11.95122,1.1475,-92.4,1.1475,2.6,1.1475,86.5,0.04413462,-48.46683,0.57375,-48.46683,0.57375,-48.46683,0.57375,-48.46683
0.04465385,-0.0001245441,0.5805,-1.018949,0.5805,-0.1739098,0.5805,-0.1303487,0.04465385,-3.323415E-05,0.5805,-0.9591883,0.5805,-0.1919788,0.5805,-0.1750684,0.04465385,1.19173E-05,0.5805,-0.962972,0.5805,0.3356956,0.5805,0.01236055,0.04465385,2.098116E-05,0.5805,-0.7968431,0.5805,0.6610794,0.5805,-0.3930887,0.0774,0.0004701457,0.5805,0.02832031,0.5805,-1.034668,0.5805,-0.01757813,0.5805,-113.2317,0.5805,36.46342,0.5805,11.34146,1.161,-93.1,1.161,3.2,1.161,85.4,0.04465385,-48.46683,0.5805,-48.46683,0.5805,-48.46683,0.5805,-48.46683
0.04517308,-8.593881E-05,0.58725,-1.018949,0.58725,-0.2103096,0.58725,-0.1833029,0.04517308,-2.618448E-05,0.58725,-0.9906371,0.58725,-0.3134349,0.58725,-0.2849951,0.04517308,1.258869E-05,0.58725,-0.9910587,0.58725,0.3356956,0.58725,0.08240366,0.04517308,2.433814E-05,0.58725,-0.9118105,0.58725,0.6690443,0.58725,-0.4538756,0.0783,0.0004649424,0.58725,0.05566406,0.58725,-1.062988,0.58725,0.006347656,0.58725,-124.2683,0.58725,37.80488,0.58725,9.817074,1.1745,-92.7,1.1745,1.7,1.1745,84.2,0.04517308,-48.46683,0.58725,-48.46683,0.58725,-48.46683,0.58725,-48.46683
0.04569231,-6.395057E-05,0.594,-1.04692,0.594,-0.2183984,0.594,-0.2525507,0.04569231,-1.628138E-05,0.594,-1.041741,0.594,-0.368286,0.594,-0.3012805,0.04569231,1.728847E-05,0.594,-1.079331,0.594,0.3239853,0.594,0.1400862,0.04569231,2.987716E-05,0.594,-1.026778,0.594,0.6969212,0.594,-0.4538756,0.0792,0.0004575571,0.594,0.04541016,0.594,-1.160645,0.594,0.05224609,0.594,-135.2439,0.594,39.20732,0.594,9.512196,1.188,-92.5,1.188,1.3,1.188,83.7,0.04569231,-48.46683,0.594,-48.46683,0.594,-48.46683,0.594,-48.46683
0.04621154,-2.534523E-05,0.60075,-1.138825,0.60075,-0.234576,0.60075,-0.2851379,0.04621154,-1.09102E-05,0.60075,-1.120363,0.60075,-0.4153012,0.60075,-0.3257087,0.04621154,1.997406E-05,0.60075,-1.187665,0.60075,0.339599,0.60075,0.2101294,0.04621154,3.440909E-05,0.60075,-1.094172,0.60075,0.7327628,0.60075,-0.4174035,0.0801,0.0004510109,0.60075,0.04443359,0.60075,-1.287109,0.60075,0.1206055,0.60075,-145.061,0.60075,37.13415,0.60075,8.414635,1.2015,-92.8,1.2015,0.9,1.2015,81.4,0.04621154,-48.46683,0.60075,-48.46683,0.60075,-48.46683,0.60075,-48.46683
0.04673077,2.903792E-05,0.6075,-1.258702,0.6075,-0.2911978,0.6075,-0.3095783,0.04673077,-1.02388E-05,0.6075,-1.206848,0.6075,-0.4662344,0.6075,-0.3704936,0.04673077,1.896696E-05,0.6075,-1.271926,0.6075,0.3591162,0.6075,0.247211,0.04673077,3.810178E-05,0.6075,-1.141745,0.6075,0.7845341,0.6075,-0.360669,0.081,0.0004466468,0.6075,0.06884766,0.6075,-1.394531,0.6075,0.1748047,0.6075,-150.7927,0.6075,28.84146,0.6075,6.280488,1.215,-92.1,1.215,0.3,1.215,77.8,0.04673077,-48.46683,0.6075,-48.46683,0.6075,-48.46683,0.6075,-48.46683
0.04725,5.857939E-05,0.61425,-1.38657,0.61425,-0.3518641,0.61425,-0.3543857,0.04725,-8.89601E-06,0.61425,-1.297263,0.61425,-0.5014958,0.61425,-0.4397067,0.04725,1.795987E-05,0.61425,-1.336124,0.61425,0.3708265,0.61425,0.3007734,0.04725,3.860533E-05,0.61425,-1.165532,0.61425,0.8601999,0.61425,-0.3160919,0.0819,0.0004402686,0.61425,0.1821289,0.61425,-1.462891,0.61425,0.1699219,0.61425,-152.6219,0.61425,10,0.61425,2.926829,1.2285,-91.9,1.2285,0.3,1.2285,75.2,0.04725,-48.46683,0.61425,-48.46683,0.61425,-48.46683,0.61425,-48.46683
0.04776923,5.958648E-05,0.621,-1.450504,0.621,-0.3478196,0.621,-0.3951196,0.04776923,-9.231708E-06,0.621,-1.312987,0.621,-0.5210854,0.621,-0.4926343,0.04776923,1.594568E-05,0.621,-1.348161,0.621,0.3708265,0.621,0.3543358,0.04776923,3.877318E-05,0.621,-1.153638,0.621,0.8761294,0.621,-0.3404067,0.0828,0.0004337225,0.621,0.1845703,0.621,-1.448242,0.621,0.02978516,0.621,-156.8902,0.621,1.402439,0.621,2.073171,1.242,-92.7,1.242,1.3,1.242,72.7,0.04776923,-48.46683,0.621,-48.46683,0.621,-48.46683,0.621,-48.46683
0.04828846,5.186542E-05,0.62775,-1.370586,0.62775,-0.283109,0.62775,-0.399193,0.04828846,-1.174945E-05,0.62775,-1.257952,0.62775,-0.5014958,0.62775,-0.4844916,0.04828846,1.510643E-05,0.62775,-1.328099,0.62775,0.3278887,0.62775,0.3666963,0.04828846,4.061952E-05,0.62775,-1.125888,0.62775,0.8402877,0.62775,-0.3971412,0.0837,0.0004291905,0.62775,0.1972656,0.62775,-1.406738,0.62775,0.008300781,0.62775,-172.439,0.62775,13.65854,0.62775,2.682927,1.2555,-92.5,1.2555,1.1,1.2555,70.2,0.04828846,-48.46683,0.62775,-48.46683,0.62775,-48.46683,0.62775,-48.46683
0.04880769,5.186542E-05,0.6345,-1.266693,0.6345,-0.2022207,0.6345,-0.3828995,0.04880769,-1.393149E-05,0.6345,-1.198985,0.6345,-0.4623165,0.6345,-0.4804202,0.04880769,1.661708E-05,0.6345,-1.291987,0.6345,0.2381097,0.6345,0.3337349,0.04880769,4.045167E-05,0.6345,-1.117959,0.6345,0.8004637,0.6345,-0.4255084,0.0846,0.0004238193,0.6345,0.1831055,0.6345,-1.434082,0.6345,0.1225586,0.6345,-185.7317,0.6345,14.7561,0.6345,-0.3658537,1.269,-92.1,1.269,1.3,1.269,68.1,0.04880769,-48.46683,0.6345,-48.46683,0.6345,-48.46683,0.6345,-48.46683
0.04932692,4.548715E-05,0.64125,-1.266693,0.64125,-0.1536877,0.64125,-0.3910462,0.04932692,-1.527428E-05,0.64125,-1.226503,0.64125,-0.4662344,0.64125,-0.500777,0.04932692,1.879911E-05,0.64125,-1.312049,0.64125,0.1717512,0.64125,0.3131339,0.04932692,3.843748E-05,0.64125,-1.169496,0.64125,0.8004637,0.64125,-0.3971412,0.0855,0.0004160983,0.64125,0.1757813,0.64125,-1.52002,0.64125,0.1552734,0.64125,-189.2073,0.64125,2.317073,0.64125,-3.231707,1.2825,-92.1,1.2825,1.6,1.2825,65.7,0.04932692,-48.46683,0.64125,-48.46683,0.64125,-48.46683,0.64125,-48.46683
0.04984615,1.527428E-05,0.648,-1.402553,0.648,-0.1496433,0.648,-0.3910462,0.04984615,-1.963836E-05,0.648,-1.312987,0.648,-0.4388088,0.648,-0.5170625,0.04984615,2.131685E-05,0.648,-1.404334,0.648,0.1756547,0.648,0.3131339,0.04984615,3.558404E-05,0.648,-1.232926,0.648,0.8442701,0.648,-0.3849837,0.0864,0.0004120699,0.648,0.2270508,0.648,-1.657715,0.648,0.09570313,0.648,-194.7561,0.648,-6.463415,0.648,-4.329268,1.296,-91.8,1.296,2.2,1.296,65.5,0.04984615,-48.46683,0.648,-48.46683,0.648,-48.46683,0.648,-48.46683
0.05036538,-3.508049E-05,0.65475,-1.554397,0.65475,-0.1779542,0.65475,-0.3625324,0.05036538,-2.400244E-05,0.65475,-1.450576,0.65475,-0.4309729,0.65475,-0.4804202,0.05036538,2.31632E-05,0.65475,-1.524706,0.65475,0.2224959,0.65475,0.3213743,0.05036538,3.642328E-05,0.65475,-1.252748,0.65475,0.8681647,0.65475,-0.4214559,0.0873,0.0004077058,0.65475,0.2246094,0.65475,-1.828613,0.65475,0.1635742,0.65475,-206.8902,0.65475,0.6097561,0.65475,-5.853659,1.3095,-91.7,1.3095,2.3,1.3095,62.8,0.05036538,-48.46683,0.65475,-48.46683,0.65475,-48.46683,0.65475,-48.46683
0.05088462,-8.342107E-05,0.6615,-1.698248,0.6615,-0.2588425,0.6615,-0.3462389,0.05088462,-2.702373E-05,0.6615,-1.580302,0.6615,-0.5132496,0.6615,-0.443778,0.05088462,2.366674E-05,0.6615,-1.621003,0.6615,0.2966612,0.6615,0.3090138,0.05088462,4.078737E-05,0.6615,-1.288428,0.6615,0.8442701,0.6615,-0.5308724,0.0882,0.0004023346,0.6615,0.1884766,0.6615,-1.957031,0.6615,0.3413086,0.6615,-216.5244,0.6615,8.231708,0.6615,-9.329268,1.323,-91.9,1.323,2.8,1.323,62,0.05088462,-48.46683,0.6615,-48.46683,0.6615,-48.46683,0.6615,-48.46683
0.05140385,-0.0001193408,0.66825,-1.806137,0.66825,-0.4812853,0.66825,-0.3421655,0.05140385,-2.903792E-05,0.66825,-1.686442,0.66825,-0.7130643,0.66825,-0.3664222,0.05140385,2.24918E-05,0.66825,-1.681189,0.66825,0.3356956,0.66825,0.3090138,0.05140385,4.112306E-05,0.66825,-1.355823,0.66825,0.8203757,0.66825,-0.6727085,0.0891,0.0003966278,0.66825,0.05175781,0.66825,-2.088867,0.66825,0.5175781,0.66825,-220.3049,0.66825,8.231708,0.66825,-17.7439,1.3365,-91.1,1.3365,3.3,1.3365,61.9,0.05140385,-48.46683,0.66825,-48.46683,0.66825,-48.46683,0.66825,-48.46683
0.05192308,-0.0001502251,0.675,-1.918022,0.675,-0.8452826,0.675,-0.4480738,0.05192308,-2.903792E-05,0.675,-1.741477,0.675,-0.9912378,0.675,-0.4112071,0.05192308,1.913481E-05,0.675,-1.765449,0.675,0.3591162,0.675,0.3708165,0.05192308,4.045167E-05,0.675,-1.538185,0.675,0.8641822,0.675,-0.8307545,0.09,0.0003910887,0.675,-0.1464844,0.675,-2.128906,0.675,0.7329102,0.675,-226.9512,0.675,2.134146,0.675,-23.10976,1.35,-91.2,1.35,3.7,1.35,60.6,0.05192308,-48.46683,0.675,-48.46683,0.675,-48.46683,0.675,-48.46683
0.05244231,-0.0001527428,0.68175,-1.938001,0.68175,-1.205235,0.68175,-0.6069363,0.05244231,-2.417029E-05,0.68175,-1.682511,0.68175,-1.245904,0.68175,-0.4274926,0.05244231,1.728847E-05,0.68175,-1.857734,0.68175,0.4488953,0.68175,0.4697009,0.05244231,4.078737E-05,0.68175,-1.716582,0.68175,0.9438304,0.68175,-0.9766431,0.0909,0.0003892424,0.68175,-0.2714844,0.68175,-2.135742,0.68175,0.9301758,0.68175,-226.9512,0.68175,-12.98781,0.68175,-23.29268,1.3635,-90.9,1.3635,3.8,1.3635,59.6,0.05244231,-48.46683,0.68175,-48.46683,0.68175,-48.46683,0.68175,-48.46683
0.05296154,-0.000114641,0.6885,-1.862079,0.6885,-1.38319,0.6885,-0.6680373,0.05296154,-1.695277E-05,0.6885,-1.6432,0.6885,-1.433965,0.6885,-0.443778,0.05296154,1.745632E-05,0.6885,-1.925944,0.6885,0.6987152,0.6885,0.5356238,0.05296154,4.179446E-05,0.6885,-1.752262,0.6885,1.071267,0.6885,-1.05364,0.0918,0.0003838712,0.6885,-0.262207,0.6885,-2.181152,0.6885,1.022949,0.6885,-231.1585,0.6885,-37.13415,0.6885,-23.96342,1.377,-91.1,1.377,4.1,1.377,59.2,0.05296154,-48.46683,0.6885,-48.46683,0.6885,-48.46683,0.6885,-48.46683
0.05348077,-4.213016E-05,0.69525,-1.846096,0.69525,-1.330612,0.69525,-0.6517437,0.05348077,-1.107805E-05,0.69525,-1.686442,0.69525,-1.516241,0.69525,-0.4112071,0.05348077,1.695277E-05,0.69525,-1.937981,0.69525,1.104673,0.69525,0.5562248,0.05348077,4.280156E-05,0.69525,-1.629366,0.69525,1.238528,0.69525,-1.041482,0.0927,0.000376318,0.69525,-0.1728516,0.69525,-2.351074,0.69525,1.070801,0.69525,-240.061,0.69525,-60.85366,0.69525,-24.87805,1.3905,-90.9,1.3905,4,1.3905,59.4,0.05348077,-48.46683,0.69525,-48.46683,0.69525,-48.46683,0.69525,-48.46683
0.054,7.80499E-05,0.702,-1.973964,0.702,-1.217369,0.702,-0.7332117,0.054,-8.89601E-06,0.702,-1.831892,0.702,-1.4418,0.702,-0.5292765,0.054,1.930266E-05,0.702,-1.937981,0.702,1.463789,0.702,0.5644651,0.054,4.280156E-05,0.702,-1.395466,0.702,1.449596,0.702,-0.8672267,0.0936,0.0003744717,0.702,-0.02392578,0.702,-2.658203,0.702,1.259277,0.702,-250.1829,0.702,-73.65854,0.702,-25.42683,1.404,-90.8,1.404,4.4,1.404,58.6,0.054,-48.46683,0.702,-48.46683,0.702,-48.46683,0.702,-48.46683
0.05451923,0.0001712062,0.70875,-2.005931,0.70875,-1.100081,0.70875,-0.9694688,0.05451923,-8.560311E-06,0.70875,-1.902652,0.70875,-1.308591,0.70875,-0.7572725,0.05451923,2.31632E-05,0.70875,-1.937981,0.70875,1.48721,0.70875,0.7169119,0.05451923,4.078737E-05,0.70875,-1.217069,0.70875,1.596945,0.70875,-0.6483937,0.09450001,0.0003701076,0.70875,0.1713867,0.70875,-2.80127,0.70875,1.408203,0.70875,-245.8537,0.70875,-94.45123,0.70875,-18.35366,1.4175,-90.8,1.4175,4.9,1.4175,57.2,0.05451923,-48.46683,0.70875,-48.46683,0.70875,-48.46683,0.70875,-48.46683
0.05503846,0.0001787594,0.7155,-2.009927,0.7155,-0.9261709,0.7155,-1.103891,0.05503846,-1.09102E-05,0.7155,-1.914445,0.7155,-1.296837,0.7155,-0.944555,0.05503846,2.568093E-05,0.7155,-1.937981,0.7155,1.139804,0.7155,1.009445,0.05503846,4.045167E-05,0.7155,-1.14571,0.7155,1.561103,0.7155,-0.5470822,0.09540001,0.0003623865,0.7155,0.2866211,0.7155,-2.718262,0.7155,1.578613,0.7155,-224.939,0.7155,-65.2439,0.7155,9.817074,1.431,-90.5,1.431,4.8,1.431,58.7,0.05503846,-48.46683,0.7155,-48.46683,0.7155,-48.46683,0.7155,-48.46683
0.05555769,0.0001327687,0.72225,-2.009927,0.72225,-0.7077725,0.72225,-0.9083678,0.05555769,-1.493858E-05,0.72225,-1.914445,0.72225,-1.249822,0.72225,-0.9567691,0.05555769,2.349889E-05,0.72225,-1.893845,0.72225,0.6870049,0.72225,1.223694,0.05555769,4.179446E-05,0.72225,-1.149674,0.72225,1.453578,0.72225,-0.4619806,0.09630001,0.0003597009,0.72225,0.4404297,0.72225,-2.34082,0.72225,0.7041016,0.72225,-240.7927,0.72225,-39.45122,0.72225,15.54878,1.4445,-90.6,1.4445,5.1,1.4445,57.4,0.05555769,-48.46683,0.72225,-48.46683,0.72225,-48.46683,0.72225,-48.46683
0.05607693,8.157473E-05,0.729,-1.965972,0.729,-0.5015074,0.729,-0.5132482,0.05607693,-1.292439E-05,0.729,-1.831892,0.729,-1.053925,0.729,-0.7287731,0.05607693,1.846342E-05,0.729,-1.745387,0.729,0.339599,0.729,1.071248,0.05607693,4.213016E-05,0.729,-1.169496,0.729,1.342071,0.729,-0.3971412,0.0972,0.0003575189,0.729,0.3095703,0.729,-2.159668,0.729,-0.4345703,0.729,-280.6098,0.729,-99.20732,0.729,11.21951,1.458,-90.5,1.458,5.7,1.458,57.4,0.05607693,-48.46683,0.729,-48.46683,0.729,-48.46683,0.729,-48.46683
0.05659616,6.730755E-05,0.73575,-1.786158,0.73575,-0.2952422,0.73575,0.1507157,0.05659616,-9.063859E-06,0.73575,-1.647131,0.73575,-0.6621312,0.73575,-0.4274926,0.05659616,1.863126E-05,0.73575,-1.701251,0.73575,0.1483306,0.73575,0.6139073,0.05659616,3.860533E-05,0.73575,-1.201211,0.73575,1.238528,0.73575,-0.4457707,0.0981,0.000352987,0.73575,0.003417969,0.73575,-2.393066,0.73575,-0.4155273,0.73575,-291.0976,0.73575,-71.28049,0.73575,25.2439,1.4715,-89.9,1.4715,5.2,1.4715,57.4,0.05659616,-48.46683,0.73575,-48.46683,0.73575,-48.46683,0.73575,-48.46683
0.05711538,8.090334E-05,0.7425,-1.826116,0.7425,-0.2588425,0.7425,1.059084,0.05711538,-1.292439E-05,0.7425,-1.513473,0.7425,-0.03134349,0.7425,-0.2198533,0.05711538,2.349889E-05,0.7425,-1.737362,0.7425,0.08977906,0.7425,0.1030046,0.05711538,3.205921E-05,0.7425,-1.236891,0.7425,1.083215,0.7425,-0.4092985,0.099,0.0003482872,0.7425,-0.2421875,0.7425,-2.885254,0.7425,0.04003906,0.7425,-279.1464,0.7425,169.1463,0.7425,48.35366,1.485,-89.9,1.485,5.5,1.485,55.3,0.05711538,-48.46683,0.7425,-48.46683,0.7425,-48.46683,0.7425,-48.46683
0.05763461,7.67071E-05,0.74925,-1.973964,0.74925,-0.2628869,0.74925,1.295341,0.05763461,-2.265965E-05,0.74925,-1.438782,0.74925,0.6621312,0.74925,0.05699901,0.05763461,2.568093E-05,0.74925,-1.725325,0.74925,0,0.74925,-0.1442064,0.05763461,2.752728E-05,0.74925,-1.363751,0.74925,0.8960415,0.74925,-0.1620984,0.0999,0.000342916,0.74925,-0.3793945,0.74925,-2.386719,0.74925,-0.6884766,0.74925,-267.561,0.74925,314.939,0.74925,37.0122,1.4985,-89.4,1.4985,5.1,1.4985,55.9,0.05763461,-48.46683,0.74925,-48.46683,0.74925,-48.46683,0.74925,-48.46683
0.05815385,5.421531E-05,0.756,-1.8421,0.756,0.004044414,0.756,1.075377,0.05815385,-3.038071E-05,0.756,-1.434851,0.756,1.300755,0.756,-0.1058553,0.05815385,2.299535E-05,0.756,-1.63304,0.756,-0.2693371,0.756,-0.3419752,0.05815385,2.836652E-05,0.756,-1.645223,0.756,0.7208156,0.756,0.1904657,0.1008,0.0003419089,0.756,-0.5078125,0.756,-1.910156,0.756,-1.128418,0.756,-279.0244,0.756,308.5976,0.756,23.65854,1.512,-89.4,1.512,5.7,1.512,54.7,0.05815385,-48.46683,0.756,-48.46683,0.756,-48.46683,0.756,-48.46683
0.05867308,3.105211E-05,0.76275,-1.550401,0.76275,0.5217295,0.76275,0.9124413,0.05867308,-3.524834E-05,0.76275,-1.371954,0.76275,1.445718,0.76275,-0.2890664,0.05867308,2.165255E-05,0.76275,-1.416371,0.76275,-0.6479706,0.76275,-0.6592293,0.05867308,2.769513E-05,0.76275,-1.930659,0.76275,0.4500119,0.76275,0.4336133,0.1017,0.0003368734,0.76275,-0.05957031,0.76275,-1.518555,0.76275,-1.053223,0.76275,-256.4024,0.76275,157.1951,0.76275,-1.646341,1.5255,-89,1.5255,5.5,1.5255,54.2,0.05867308,-48.46683,0.76275,-48.46683,0.76275,-48.46683,0.76275,-48.46683
0.05919231,-4.313725E-05,0.7695,-1.294665,0.7695,1.13648,0.7695,1.429763,0.05919231,-3.877318E-05,0.7695,-1.309056,0.7695,0.9520584,0.7695,0.2320674,0.05919231,2.534523E-05,0.7695,-1.135504,0.7695,-1.01099,0.7695,-1.178373,0.05919231,2.769513E-05,0.7695,-1.986161,0.7695,0.127437,0.7695,0.7942823,0.1026,0.0003298238,0.7695,0.4912109,0.7695,-1.415527,0.7695,-1.498535,0.7695,-193.1707,0.7695,-170.1829,0.7695,-24.81707,1.539,-89.1,1.539,5.1,1.539,53.8,0.05919231,-48.46683,0.7695,-48.46683,0.7695,-48.46683,0.7695,-48.46683
0.05971154,-0.0001639887,0.77625,-1.254706,0.77625,1.577322,0.77625,1.90635,0.05971154,-4.448005E-05,0.77625,-1.277607,0.77625,1.281165,0.77625,1.306906,0.05971154,2.803082E-05,0.77625,-0.8506253,0.77625,-1.502823,0.77625,-1.812881,0.05971154,2.752728E-05,0.77625,-1.99409,0.77625,-0.2110675,0.77625,1.159004,0.1035,0.000328481,0.77625,0.7871094,0.77625,-1.910156,0.77625,-0.9672852,0.77625,-143.4756,0.77625,-389.7561,0.77625,-55.12195,1.5525,-88.9,1.5525,5.6,1.5525,53.9,0.05971154,-48.46683,0.77625,-48.46683,0.77625,-48.46683,0.77625,-48.46683
0.06023077,-0.0002413672,0.783,-1.666281,0.783,1.799764,0.783,1.519377,0.06023077,-4.414435E-05,0.783,-1.25009,0.783,1.849266,0.783,1.555259,0.06023077,2.668803E-05,0.783,-0.6861175,0.783,-1.971236,0.783,-1.965327,0.06023077,2.819867E-05,0.783,-1.99409,0.783,-0.3225749,0.783,1.098217,0.1044,0.0003247883,0.783,0.980957,0.783,-2.895996,0.783,-0.1586914,0.783,-120.8537,0.783,-400.8537,0.783,-55.67073,1.566,-88.6,1.566,5.7,1.566,53.4,0.06023077,-48.46683,0.783,-48.46683,0.783,-48.46683,0.783,-48.46683
0.06075,-0.0002611734,0.78975,-1.95798,0.78975,1.601588,0.78975,0.7535787,0.06075,-3.038071E-05,0.78975,-1.324781,0.78975,1.923707,0.78975,0.9201269,0.06075,2.735943E-05,0.78975,-0.6620433,0.78975,-2.045401,0.78975,-1.985928,0.06075,3.021286E-05,0.78975,-1.99409,0.78975,-0.08363053,0.78975,0.8388594,0.1053,0.0003187457,0.78975,0.6796875,0.78975,-2.162598,0.78975,0.4726563,0.78975,-95.30488,0.78975,-147.3781,0.78975,3.658537,1.5795,-88.2,1.5795,5.5,1.5795,53.6,0.06075,-48.46683,0.78975,-48.46683,0.78975,-48.46683,0.78975,-48.46683
0.06126923,-0.0002675517,0.7965,-1.398557,0.7965,1.375101,0.7965,0.818753,0.06126923,-9.063859E-06,0.7965,-1.619613,0.7965,1.249822,0.7965,0.602561,0.06126923,3.172351E-05,0.7965,-0.5416718,0.7965,-1.869746,0.7965,-1.701636,0.06126923,2.719158E-05,0.7965,-1.875158,0.7965,0.2907157,0.7965,0.6564987,0.1062,0.0003158923,0.7965,0.5117188,0.7965,-1.189453,0.7965,0.8540039,0.7965,-87.19512,0.7965,64.69512,0.7965,-3.780488,1.593,-87.5,1.593,5,1.593,52.6,0.06126923,-48.46683,0.7965,-48.46683,0.7965,-48.46683,0.7965,-48.46683
0.06178846,-0.0002245823,0.80325,-1.074891,0.80325,0.7158613,0.80325,0.521395,0.06178846,6.54612E-06,0.80325,-1.309056,0.80325,0.6973926,0.80325,0.7654153,0.06178846,3.172351E-05,0.80325,-0.3530897,0.80325,-1.198355,0.80325,-0.9723632,0.06178846,1.930266E-05,0.80325,-1.669009,0.80325,0.6730267,0.80325,0.5997642,0.1071,0.0003147173,0.80325,0.01367188,0.80325,-0.9667969,0.80325,1.294434,0.80325,-85.18293,0.80325,84.39024,0.80325,12.7439,1.6065,-86.7,1.6065,4.4,1.6065,51,0.06178846,-48.46683,0.80325,-48.46683,0.80325,-48.46683,0.80325,-48.46683
0.06230769,-9.382773E-05,0.81,-1.226735,0.81,0.02022207,0.81,0.3055049,0.06230769,9.903106E-06,0.81,-0.9670506,0.81,0.728736,0.81,0.2890664,0.06230769,2.735943E-05,0.81,-0.2287059,0.81,-0.7143289,0.81,-0.2842926,0.06230769,1.12459E-05,0.81,-1.474754,0.81,1.011531,0.81,0.5470822,0.108,0.0003100176,0.81,-0.3740234,0.81,-0.737793,0.81,1.021973,0.81,-40.42683,0.81,1.585366,0.81,13.04878,1.62,-85.9,1.62,4.6,1.62,50.1,0.06230769,-48.46683,0.81,-48.46683,0.81,-48.46683,0.81,-48.46683
0.06282692,1.460288E-05,0.81675,-1.238722,0.81675,-0.3599529,0.81675,0.3095783,0.06282692,3.524834E-06,0.81675,-0.7272535,0.81675,0.6582133,0.81675,-0.2239247,0.06282692,2.484169E-05,0.81675,-0.1805573,0.81675,-0.4098609,0.81675,0.201889,0.06282692,4.531929E-06,0.81675,-1.236891,0.81675,1.210652,0.81675,0.4619806,0.1089,0.0003059892,0.81675,-0.4487305,0.81675,-0.6767578,0.81675,0.8706055,0.81675,5.487805,0.81675,-49.93903,0.81675,4.45122,1.6335,-83.7,1.6335,4.4,1.6335,48.2,0.06282692,-48.46683,0.81675,-48.46683,0.81675,-48.46683,0.81675,-48.46683
0.06334615,3.004501E-05,0.8235,-1.04692,0.8235,-0.4327523,0.8235,0.3543857,0.06334615,-3.021286E-06,0.8235,-0.5071118,0.8235,0.3447784,0.8235,-0.3989931,0.06334615,2.366674E-05,0.8235,-0.1805573,0.8235,-0.1600409,0.8235,0.3502156,0.06334615,1.846342E-06,0.8235,-1.086244,0.8235,1.230564,0.8235,0.3485116,0.1098,0.0003036393,0.8235,-0.3881836,0.8235,-0.6616211,0.8235,0.684082,0.8235,44.08537,0.8235,-54.32927,0.8235,1.707317,1.647,-82.7,1.647,4.5,1.647,47,0.06334615,-48.46683,0.8235,-48.46683,0.8235,-48.46683,0.8235,-48.46683
0.06386539,3.071641E-05,0.83025,-0.7592168,0.83025,-0.2588425,0.83025,0.5091748,0.06386539,-5.539025E-06,0.83025,-0.2830392,0.83025,0.05876904,0.83025,-0.3542081,0.06386539,2.366674E-05,0.83025,-0.1524706,0.83025,0.003903437,0.83025,0.1977688,0.06386539,-1.678492E-07,0.83025,-1.133816,0.83025,1.095162,0.83025,0.2390952,0.1107,0.0002989395,0.83025,-0.2739258,0.83025,-0.5566406,0.83025,0.4819336,0.83025,71.09756,0.83025,-50.18293,0.83025,-2.5,1.6605,-81.3,1.6605,3.5,1.6605,45.9,0.06386539,-48.46683,0.83025,-48.46683,0.83025,-48.46683,0.83025,-48.46683
0.06438462,5.824368E-05,0.837,-0.4954889,0.837,-0.07279946,0.837,0.6761842,0.06438462,5.035478E-07,0.837,-0.0511043,0.837,0.1018663,0.837,-0.215782,0.06438462,2.517739E-05,0.837,-0.04413622,0.837,0.08197217,0.837,-0.1318459,0.06438462,-1.342794E-06,0.837,-1.288428,0.837,0.8363053,0.837,0.202623,0.1116,0.0002955825,0.837,-0.08300781,0.837,-0.5634766,0.837,0.3154297,0.837,103.7805,0.837,-75.67073,0.837,-11.46342,1.674,-79.5,1.674,3.7,1.674,42.6,0.06438462,-48.46683,0.837,-48.46683,0.837,-48.46683,0.837,-48.46683
0.06490385,0.0001012131,0.84375,-0.295695,0.84375,0.08088828,0.84375,0.7250649,0.06490385,5.874724E-06,0.84375,0.1257952,0.84375,0.4623165,0.84375,0.02035679,0.06490385,2.232395E-05,0.84375,0.1203715,0.84375,0.07806874,0.84375,-0.4202587,0.06490385,-8.392462E-07,0.84375,-1.462861,0.84375,0.5535545,0.84375,0.2715149,0.1125,0.0002897078,0.84375,0.02294922,0.84375,-0.5839844,0.84375,0.2119141,0.84375,134.0854,0.84375,-93.04878,0.84375,-16.28049,1.6875,-78.2,1.6875,3.7,1.6875,42.6,0.06490385,-48.46683,0.84375,-48.46683,0.84375,-48.46683,0.84375,-48.46683
0.06542308,0.0001990692,0.8505,-0.1798145,0.8505,0.2709758,0.8505,0.7372851,0.06542308,-2.349889E-06,0.8505,0.2083483,0.8505,0.9873199,0.8505,0.2442815,0.06542308,1.728847E-05,0.8505,0.3290154,0.8505,-0.04293781,0.8505,-0.6509889,0.06542308,-3.356985E-07,0.8505,-1.526291,0.8505,0.3185925,0.8505,0.3890362,0.1134,0.000288365,0.8505,0.07910156,0.8505,-0.5761719,0.8505,0.1206055,0.8505,165.1829,0.8505,-76.15854,0.8505,-19.14634,1.701,-75.3,1.701,3.7,1.701,40.9,0.06542308,-48.46683,0.8505,-48.46683,0.8505,-48.46683,0.8505,-48.46683
0.06594231,0.0003058213,0.85725,-0.1798145,0.85725,0.5217295,0.85725,0.7495052,0.06594231,-1.829557E-05,0.85725,0.196555,0.85725,1.426129,0.85725,0.3949217,0.06594231,1.225299E-05,0.85725,0.4734613,0.85725,-0.2459165,0.85725,-0.8281568,0.06594231,-4.36408E-06,0.85725,-1.454932,0.85725,0.09557775,0.85725,0.5106101,0.1143,0.0002858473,0.85725,0.07080078,0.85725,-0.5307617,0.85725,0.006835938,0.85725,185.1219,0.85725,-28.59756,0.85725,-22.43902,1.7145,-73.2,1.7145,3.8,1.7145,40.2,0.06594231,-48.46683,0.85725,-48.46683,0.85725,-48.46683,0.85725,-48.46683
0.06646154,0.0003190814,0.864,-0.2237692,0.864,0.8129272,0.864,0.7739457,0.06646154,-3.121996E-05,0.864,0.09827749,0.864,1.633779,0.864,0.3542081,0.06646154,9.063859E-06,0.864,0.4975356,0.864,-0.4723159,0.864,-0.9847238,0.06646154,-1.040665E-05,0.864,-1.276535,0.864,0.03982406,0.864,0.4944002,0.1152,0.0002803082,0.864,0.02441406,0.864,-0.5053711,0.864,-0.06738281,0.864,202.1342,0.864,17.19512,0.864,-25.18293,1.728,-70.7,1.728,4.1,1.728,38.3,0.06646154,-48.46683,0.864,-48.46683,0.864,-48.46683,0.864,-48.46683
0.06698077,0.0002479133,0.87075,-0.2517403,0.87075,1.011104,0.87075,0.8106062,0.06698077,-3.558404E-05,0.87075,-0.0117933,0.87075,1.5946,0.87075,0.2076393,0.06698077,9.735257E-06,0.87075,0.4413622,0.87075,-0.6674877,0.87075,-1.030046,0.06698077,-1.695277E-05,0.87075,-1.244819,0.87075,-0.03185925,0.87075,0.5511347,0.1161,0.0002767834,0.87075,-0.01953125,0.87075,-0.5112305,0.87075,-0.04394531,0.87075,218.8415,0.87075,38.71951,0.87075,-24.81707,1.7415,-68.5,1.7415,5.1,1.7415,38,0.06698077,-48.46683,0.87075,-48.46683,0.87075,-48.46683,0.87075,-48.46683
0.0675,0.0001003738,0.8775,-0.2717197,0.8775,1.023237,0.8775,0.7332117,0.0675,-3.424125E-05,0.8775,-0.05503539,0.8775,1.410457,0.8775,0.1628543,0.0675,1.208515E-05,0.8775,0.3290154,0.8775,-0.6948118,0.8775,-1.034166,0.0675,-2.299535E-05,0.8775,-1.133816,0.8775,-0.08363053,0.8775,0.5430298,0.117,0.0002759442,0.8775,-0.02001953,0.8775,-0.5205078,0.8775,-0.05322266,0.8775,241.6463,0.8775,47.62195,0.8775,-23.35366,1.755,-65.7,1.755,3.9,1.755,36.5,0.0675,-48.46683,0.8775,-48.46683,0.8775,-48.46683,0.8775,-48.46683
0.06801923,-0.0001025559,0.88425,-0.2797115,0.88425,0.8816823,0.88425,0.6843309,0.06801923,-3.004501E-05,0.88425,-0.039311,0.88425,1.292919,0.88425,0.2402101,0.06801923,1.326009E-05,0.88425,0.2287059,0.88425,-0.5347708,0.88425,-1.083608,0.06801923,-2.803082E-05,0.88425,-1.062457,0.88425,-0.07964813,0.88425,0.5551872,0.1179,0.0002717479,0.88425,0.02734375,0.88425,-0.5449219,0.88425,-0.04980469,0.88425,263.2317,0.88425,51.46342,0.88425,-23.29268,1.7685,-60.8,1.7685,2.7,1.7685,34.7,0.06801923,-48.46683,0.88425,-48.46683,0.88425,-48.46683,0.88425,-48.46683
0.06853846,-0.0003002823,0.891,-0.2397527,0.891,0.7360834,0.891,0.6476703,0.06853846,-2.131685E-05,0.891,-0.007862199,0.891,1.281165,0.891,0.272781,0.06853846,1.409934E-05,0.891,0.2006192,0.891,-0.2693371,0.891,-1.161892,0.06853846,-3.642328E-05,0.891,-1.002991,0.891,-0.09557775,0.891,0.563292,0.1188,0.0002657053,0.891,0.1298828,0.891,-0.5678711,0.891,-0.1542969,0.891,281.4634,0.891,65.2439,0.891,-21.03659,1.782,-59,1.782,6,1.782,33.3,0.06853846,-48.46683,0.891,-48.46683,0.891,-48.46683,0.891,-48.46683
0.0690577,-0.0004078737,0.89775,-0.2077857,0.89775,0.663284,0.89775,0.6924777,0.0690577,-1.460288E-05,0.89775,0.0353799,0.89775,1.273329,0.89775,0.2524242,0.0690577,1.795987E-05,0.89775,0.2608049,0.89775,-0.03903437,0.89775,-1.182492,0.0690577,-4.649424E-05,0.89775,-0.94749,0.89775,-0.1115074,0.89775,0.5389773,0.1197,0.0002660411,0.89775,0.1850586,0.89775,-0.6152344,0.89775,-0.1865234,0.89775,292.561,0.89775,91.40244,0.89775,-17.86585,1.7955,-58,1.7955,6.5,1.7955,33.5,0.0690577,-48.46683,0.89775,-48.46683,0.89775,-48.46683,0.89775,-48.46683
0.06957693,-0.0003791714,0.9045,-0.1878063,0.9045,0.6956393,0.9045,0.7006245,0.06957693,-2.28275E-05,0.9045,0.0589665,0.9045,1.230232,0.9045,0.2320674,0.06957693,2.232395E-05,0.9045,0.3370402,0.9045,0.1053928,0.9045,-1.025926,0.06957693,-5.404746E-05,0.9045,-0.8840597,0.9045,-0.08761294,0.9045,0.5065576,0.1206,0.0002626841,0.9045,0.2426758,0.9045,-0.6557617,0.9045,-0.2304688,0.9045,303.9024,0.9045,129.5732,0.9045,-13.53659,1.809,-57,1.809,6.2,1.809,33.1,0.06957693,-48.46683,0.9045,-48.46683,0.9045,-48.46683,0.9045,-48.46683
0.07009616,-0.0002286107,0.91125,-0.163831,0.91125,0.7603499,0.91125,0.582496,0.07009616,-4.145876E-05,0.91125,0.078622,0.91125,1.171463,0.91125,0.1994965,0.07009616,2.333105E-05,0.91125,0.3851888,0.91125,0.1639443,0.91125,-0.7210321,0.07009616,-5.774014E-05,0.91125,-0.8245938,0.91125,-0.1194722,0.91125,0.4741379,0.1215,0.0002556344,0.91125,0.2548828,0.91125,-0.6650391,0.91125,-0.2924805,0.91125,311.6464,0.91125,162.0732,0.91125,-8.780488,1.8225,-56.3,1.8225,7.1,1.8225,32.6,0.07009616,-48.46683,0.91125,-48.46683,0.91125,-48.46683,0.91125,-48.46683
0.07061539,6.025788E-05,0.918,-0.1718228,0.918,0.7846164,0.918,0.4643674,0.07061539,-5.62295E-05,0.918,0.09041529,0.918,1.069597,0.918,0.1180694,0.07061539,2.299535E-05,0.918,0.3490774,0.918,0.1834615,0.918,-0.3502156,0.07061539,-5.841153E-05,0.918,-0.7532347,0.918,-0.147349,0.918,0.4376658,0.1224,0.0002546273,0.918,0.2119141,0.918,-0.7089844,0.918,-0.2749023,0.918,322.1951,0.918,187.7439,0.918,-2.195122,1.836,-56.6,1.836,8.1,1.836,33.6,0.07061539,-48.46683,0.918,-48.46683,0.918,-48.46683,0.918,-48.46683
0.07113462,0.0003962921,0.92475,-0.163831,0.92475,0.7643943,0.92475,0.4765876,0.07113462,-5.975433E-05,0.92475,0.078622,0.92475,0.9050432,0.92475,0.01628543,0.07113462,2.333105E-05,0.92475,0.2648173,0.92475,0.1600409,0.92475,-0.0494422,0.07113462,-6.059357E-05,0.92475,-0.7096264,0.92475,-0.1991203,0.92475,0.4255084,0.1233,0.0002522774,0.92475,0.1894531,0.92475,-0.7583008,0.92475,-0.2709961,0.92475,330.6098,0.92475,197.2561,0.92475,3.719512,1.8495,-57.7,1.8495,8.6,1.8495,32.7,0.07113462,-48.46683,0.92475,-48.46683,0.92475,-48.46683,0.92475,-48.46683
0.07165385,0.0004745098,0.9315,-0.1478475,0.9315,0.6794616,0.9315,0.5336152,0.07165385,-5.4551E-05,0.9315,0.08648419,0.9315,0.7169824,0.9315,-0.03257087,0.07165385,2.551308E-05,0.9315,0.1484582,0.9315,0.09758592,0.9315,0.06592293,0.07165385,-6.193637E-05,0.9315,-0.6501606,0.9315,-0.2070851,0.9315,0.4011936,0.1242,0.000248249,0.9315,0.1889648,0.9315,-0.8193359,0.9315,-0.2890625,0.9315,339.4512,0.9315,186.7683,0.9315,8.170732,1.863,-58.8,1.863,8.2,1.863,33.9,0.07165385,-48.46683,0.9315,-48.46683,0.9315,-48.46683,0.9315,-48.46683
0.07217308,0.0002254216,0.93825,-0.1518434,0.93825,0.5419515,0.93825,0.5539821,0.07217308,-3.894103E-05,0.93825,0.1218641,0.93825,0.6190339,0.93825,-0.03664222,0.07217308,3.088426E-05,0.93825,0.06419814,0.93825,0.05855156,0.93825,-0.01648073,0.07217308,-6.361487E-05,0.93825,-0.5986234,0.93825,-0.2230148,0.93825,0.3930887,0.1251,0.0002448921,0.93825,0.2226563,0.93825,-0.8818359,0.93825,-0.3530273,0.93825,352.0122,0.93825,168.5976,0.93825,12.07317,1.8765,-60.4,1.8765,7.8,1.8765,34.8,0.07217308,-48.46683,0.93825,-48.46683,0.93825,-48.46683,0.93825,-48.46683
0.0726923,-0.0001552606,0.945,-0.1438516,0.945,0.4206191,0.945,0.5051014,0.0726923,-2.030976E-05,0.945,0.2004861,0.945,0.5720187,0.945,-0.05292765,0.0726923,3.440909E-05,0.945,0.01203715,0.945,0.01561375,0.945,-0.1977688,0.0726923,-6.797894E-05,0.945,-0.5074423,0.945,-0.2110675,0.945,0.360669,0.126,0.000240528,0.945,0.2709961,0.945,-0.9111328,0.945,-0.3901367,0.945,364.3903,0.945,156.6463,0.945,14.20732,1.89,-63.9,1.89,6.6,1.89,36.2,0.0726923,-48.46683,0.945,-48.46683,0.945,-48.46683,0.945,-48.46683
0.07321154,-0.0004505074,0.95175,-0.1558393,0.95175,0.3680417,0.95175,0.4236334,0.07321154,-2.853437E-06,0.95175,0.2476593,0.95175,0.489742,0.95175,-0.1058553,0.07321154,3.642328E-05,0.95175,0.008024767,0.95175,-0.01561375,0.95175,-0.3872972,0.07321154,-7.167162E-05,0.95175,-0.463834,0.95175,-0.21505,0.95175,0.3485116,0.1269,0.0002398566,0.95175,0.265625,0.95175,-0.9438477,0.95175,-0.4169922,0.95175,369.0244,0.95175,158.3537,0.95175,15.97561,1.9035,-66,1.9035,5.8,1.9035,37.9,0.07321154,-48.46683,0.95175,-48.46683,0.95175,-48.46683,0.95175,-48.46683
0.07373077,-0.0005005265,0.9585,-0.1558393,0.9585,0.3356864,0.9585,0.3625324,0.07373077,2.131685E-05,0.9585,0.2122794,0.9585,0.3722039,0.9585,-0.158783,0.07373077,4.045167E-05,0.9585,-0.04012384,0.9585,-0.06245499,0.9585,-0.4655807,0.07373077,-7.570001E-05,0.9585,-0.4122969,0.9585,-0.21505,0.9585,0.3404067,0.1278,0.0002364996,0.9585,0.2280273,0.9585,-0.9887695,0.9585,-0.3828125,0.9585,373.7195,0.9585,162.9268,0.9585,18.71951,1.917,-68.6,1.917,4.2,1.917,40.7,0.07373077,-48.46683,0.9585,-48.46683,0.9585,-48.46683,0.9585,-48.46683
0.07425,-0.0002944076,0.96525,-0.1758187,0.96525,0.2709758,0.96525,0.3177251,0.07425,4.800488E-05,0.96525,0.1336574,0.96525,0.1998147,0.96525,-0.227996,0.07425,4.582285E-05,0.96525,-0.1966068,0.96525,-0.1561375,0.96525,-0.4161385,0.07425,-8.123904E-05,0.96525,-0.4083325,0.96525,-0.2429268,0.96525,0.3809313,0.1287,0.0002302892,0.96525,0.1923828,0.96525,-1.024902,0.96525,-0.3720703,0.96525,379.939,0.96525,154.1463,0.96525,21.03659,1.9305,-71.1,1.9305,2.2,1.9305,43.1,0.07425,-48.46683,0.96525,-48.46683,0.96525,-48.46683,0.96525,-48.46683
0.07476923,-1.577783E-05,0.972,-0.2157774,0.972,0.1779542,0.972,0.3462389,0.07476923,5.119402E-05,0.972,0.0471732,0.972,0.07052285,0.972,-0.3175659,0.07476923,4.347295E-05,0.972,-0.3490774,0.972,-0.3669231,0.972,-0.2389706,0.07476923,-8.946365E-05,0.972,-0.3766173,0.972,-0.254874,0.972,0.4011936,0.1296,0.0002299535,0.972,0.1484375,0.972,-1.088867,0.972,-0.3481445,0.972,389.5122,0.972,126.4024,0.972,22.80488,1.944,-73.7,1.944,1,1.944,46.2,0.07476923,-48.46683,0.972,-48.46683,0.972,-48.46683,0.972,-48.46683
0.07528846,0.0002422065,0.97875,-0.2677239,0.97875,0.08088828,0.97875,0.3951196,0.07528846,1.963836E-05,0.97875,-0.0275177,0.97875,0.01175381,0.97875,-0.3094232,0.07528846,2.517739E-05,0.97875,-0.3932136,0.97875,-0.6870049,0.97875,0,0.07528846,-9.785611E-05,0.97875,-0.3409378,0.97875,-0.254874,0.97875,0.3647215,0.1305,0.0002274357,0.97875,0.1245117,0.97875,-1.157227,0.97875,-0.3691406,0.97875,398.1707,0.97875,99.2683,0.97875,22.19512,1.9575,-76,1.9575,-0.2,1.9575,49.1,0.07528846,-48.46683,0.97875,-48.46683,0.97875,-48.46683,0.97875,-48.46683
0.07580769,0.0004516823,0.9855,-0.3476414,0.9855,0.04448856,0.9855,0.3951196,0.07580769,-2.064546E-05,0.9855,-0.1061397,0.9855,0.03917936,0.9855,-0.2483528,0.07580769,-1.846342E-06,0.9855,-0.3530897,0.9855,-1.073445,0.9855,0.201889,0.07580769,-0.0001049058,0.9855,-0.3686886,0.9855,-0.2668213,0.9855,0.3647215,0.1314,0.0002212253,0.9855,0.1269531,0.9855,-1.230469,0.9855,-0.3579102,0.9855,408.9634,0.9855,75.60976,0.9855,19.26829,1.971,-78.2,1.971,-1,1.971,53,0.07580769,-48.46683,0.9855,-48.46683,0.9855,-48.46683,0.9855,-48.46683
0.07632692,0.0004691386,0.99225,-0.4395466,0.99225,0.06066621,0.99225,0.4114133,0.07632692,-4.53193E-05,0.99225,-0.1729684,0.99225,0.1136201,0.99225,-0.2524242,0.07632692,-2.098116E-05,0.99225,-0.3290154,0.99225,-1.424755,0.99225,0.2595716,0.07632692,-0.000110277,0.99225,-0.3449022,0.99225,-0.2628388,0.99225,0.3444592,0.1323,0.0002198825,0.99225,0.1474609,0.99225,-1.357422,0.99225,-0.3701172,0.99225,420.6098,0.99225,50.4878,0.99225,16.21951,1.9845,-80.4,1.9845,-1.1,1.9845,57.1,0.07632692,-48.46683,0.99225,-48.46683,0.99225,-48.46683,0.99225,-48.46683
0.07684615,0.0003301594,0.999,-0.5514312,0.999,0.1536877,0.999,0.5010279,0.07684615,-5.203327E-05,0.999,-0.3420057,0.999,0.2154865,0.999,-0.3053519,0.07684615,-2.21561E-05,0.999,-0.3731517,0.999,-1.549665,0.999,0.0494422,0.07684615,-0.0001139696,0.999,-0.3290446,0.999,-0.234962,0.999,0.3404067,0.1332,0.0002187076,0.999,0.2290039,0.999,-1.515137,0.999,-0.4482422,0.999,432.3171,0.999,17.43902,0.999,9.634147,1.998,-82.1,1.998,-1.2,1.998,61.1,0.07684615,-48.46683,0.999,-48.46683,0.999,-48.46683,0.999,-48.46683
0.07736538,0.0002546273,1.00575,-0.7352417,1.00575,0.3599529,1.00575,0.6110097,0.07736538,-4.313725E-05,1.00575,-0.6014583,1.00575,0.4388088,1.00575,-0.2117106,0.07736538,-8.056764E-06,1.00575,-0.4694489,1.00575,-1.389624,1.00575,-0.2636917,0.07736538,-0.0001156481,1.00575,-0.3052583,1.00575,-0.2031027,1.00575,0.3485116,0.1341,0.0002143435,1.00575,0.2768555,1.00575,-1.678711,1.00575,-0.5834961,1.00575,441.5854,1.00575,1.341463,1.00575,3.780488,2.0115,-83.9,2.0115,-0.9,2.0115,63.7,0.07736538,-48.46683,1.00575,-48.46683,1.00575,-48.46683,1.00575,-48.46683
0.07788461,0.0003878996,1.0125,-1.030937,1.0125,0.614751,1.0125,0.6354501,0.07788461,-2.702373E-05,1.0125,-0.908084,1.0125,0.7718334,1.0125,-0.1058553,0.07788461,8.560311E-06,1.0125,-0.5376594,1.0125,-1.108576,1.0125,-0.5232633,0.07788461,-0.0001190051,1.0125,-0.2775075,1.0125,-0.1553139,1.0125,0.3323018,0.135,0.0002101473,1.0125,0.3037109,1.0125,-1.896973,1.0125,-0.6616211,1.0125,446.8293,1.0125,5.060976,1.0125,1.768293,2.025,-86,2.025,-0.3,2.025,72,0.07788461,-48.46683,1.0125,-48.46683,1.0125,-48.46683,1.0125,-48.46683
0.07840385,0.0006215457,1.01925,-1.322636,1.01925,0.8291049,1.01925,0.6273034,0.07840385,-1.779202E-05,1.01925,-1.104639,1.01925,0.9912378,1.01925,-0.215782,0.07840385,1.980621E-05,1.01925,-0.5496966,1.01925,-0.8743699,1.01925,-0.6509889,0.07840385,-0.0001211871,1.01925,-0.2497568,1.01925,-0.1035426,1.01925,0.307987,0.1359,0.0002109865,1.01925,0.2856445,1.01925,-2.174805,1.01925,-0.7587891,1.01925,443.4146,1.01925,25.79268,1.01925,4.512195,2.0385,-86.1,2.0385,-0.5,2.0385,74.4,0.07840385,-48.46683,1.01925,-48.46683,1.01925,-48.46683,1.01925,-48.46683
0.07892308,0.0006144961,1.026,-1.442512,1.026,0.9059488,1.026,0.6273034,0.07892308,-1.997406E-05,1.026,-1.077121,1.026,0.979484,1.026,-0.3216373,0.07892308,2.383459E-05,1.026,-0.5617337,1.026,-0.6596809,1.026,-0.5768257,0.07892308,-0.0001200122,1.026,-0.222006,1.026,-0.0597361,1.026,0.2390952,0.1368,0.0002076295,1.026,0.2792969,1.026,-2.390137,1.026,-0.8901367,1.026,440.1219,1.026,41.09756,1.026,6.097561,2.052,-86.1,2.052,-0.3,2.052,78,0.07892308,-48.46683,1.026,-48.46683,1.026,-48.46683,1.026,-48.46683
0.07944231,0.0003486229,1.03275,-1.314644,1.03275,0.8210161,1.03275,0.5784225,0.07944231,-2.047761E-05,1.03275,-0.947395,1.03275,0.8776177,1.03275,-0.3379227,0.07944231,2.299535E-05,1.03275,-0.637969,1.03275,-0.4137644,1.03275,-0.2760523,0.07944231,-0.0001203479,1.03275,-0.1863265,1.03275,-0.01991203,1.03275,0.1864132,0.1377,0.0002039368,1.03275,0.2695313,1.03275,-2.362305,1.03275,-0.9750977,1.03275,444.3293,1.03275,30.54878,1.03275,8.170732,2.0655,-85.9,2.0655,-0.1,2.0655,81.8,0.07944231,-48.46683,1.03275,-48.46683,1.03275,-48.46683,1.03275,-48.46683
0.07996154,0.0001166552,1.0395,-1.154809,1.0395,0.7158613,1.0395,0.5336152,0.07996154,-1.544213E-05,1.0395,-0.9395328,1.0395,0.6660491,1.0395,-0.2890664,0.07996154,2.400244E-05,1.0395,-0.8426005,1.0395,-0.1834615,1.0395,0.1153651,0.07996154,-0.0001208515,1.0395,-0.1942553,1.0395,0,1.0395,0.1337312,0.1386,0.0001989014,1.0395,0.2670898,1.0395,-2.172852,1.0395,-1.000977,1.0395,448.9634,1.0395,-0.1219512,1.0395,5.304878,2.079,-85.6,2.079,0.4,2.079,84.1,0.07996154,-48.46683,1.0395,-48.46683,1.0395,-48.46683,1.0395,-48.46683
0.08048077,4.666209E-05,1.04625,-1.082883,1.04625,0.614751,1.04625,0.4725142,0.08048077,-1.443503E-05,1.04625,-1.014224,1.04625,0.4309729,1.04625,-0.2076393,0.08048077,2.534523E-05,1.04625,-1.223777,1.04625,0.02732406,1.04625,0.3543358,0.08048077,-0.000121355,1.04625,-0.2180416,1.04625,-0.01592963,1.04625,0.0729443,0.1395,0.0001985657,1.04625,0.2158203,1.04625,-2.060059,1.04625,-1.050293,1.04625,438.7805,1.04625,-15.97561,1.04625,1.585366,2.0925,-85.9,2.0925,1.2,2.0925,86.8,0.08048077,-48.46683,1.04625,-48.46683,1.04625,-48.46683,1.04625,-48.46683
0.081,5.001907E-05,1.053,-1.086879,1.053,0.4327523,1.053,0.3543857,0.081,-6.54612E-06,1.053,-1.069259,1.053,0.2076506,1.053,-0.3379227,0.081,2.635233E-05,1.053,-1.576867,1.053,0.3356956,1.053,0.3090138,0.081,-0.0001243763,1.053,-0.2656144,1.053,-0.007964813,1.053,-0.01620984,0.1404,0.0001972229,1.053,0.1186523,1.053,-2.024902,1.053,-1.260742,1.053,405.2439,1.053,22.56098,1.053,5.182927,2.106,-85.6,2.106,1.5,2.106,88.4,0.081,-48.46683,1.053,-48.46683,1.053,-48.46683,1.053,-48.46683
0.08151923,3.709468E-05,1.05975,-1.150813,1.05975,0.2467093,1.05975,0.3625324,0.08151923,5.203327E-06,1.05975,-1.147881,1.05975,0.02742555,1.05975,-0.4478494,0.08151923,2.719158E-05,1.05975,-1.73335,1.05975,0.8158184,1.05975,0.008240366,0.08151923,-0.0001284047,1.05975,-0.3092227,1.05975,0.09956016,1.05975,-0.1742558,0.1413,0.0001931945,1.05975,0.02587891,1.05975,-2.004883,1.05975,-1.511719,1.05975,366.9512,1.05975,63.29268,1.05975,12.31707,2.1195,-85.9,2.1195,2.6,2.1195,88.7,0.08151923,-48.46683,1.05975,-48.46683,1.05975,-48.46683,1.05975,-48.46683
0.08203846,8.560311E-06,1.0665,-1.146817,1.0665,0.1819986,1.0665,0.41956,0.08203846,3.356985E-07,1.0665,-1.202917,1.0665,0,1.0665,-0.3460654,0.08203846,2.903792E-05,1.0665,-1.877796,1.0665,1.182741,1.0665,-0.2142495,0.08203846,-0.000131426,1.0665,-0.3290446,1.0665,0.2787685,1.0665,-0.4011936,0.1422,0.0001908446,1.0665,-0.007324219,1.0665,-1.891113,1.0665,-1.79541,1.0665,333.2317,1.0665,70.97561,1.0665,18.35366,2.133,-86.1,2.133,2.7,2.133,87.7,0.08203846,-48.46683,1.0665,-48.46683,1.0665,-48.46683,1.0665,-48.46683
0.08255769,-9.567407E-06,1.07325,-1.042924,1.07325,0.2952422,1.07325,0.4684408,0.08255769,-2.131685E-05,1.07325,-1.171468,1.07325,0.2272403,1.07325,-0.2117106,0.08255769,3.021286E-05,1.07325,-1.929957,1.07325,1.053928,1.07325,-0.1194853,0.08255769,-0.0001310903,1.07325,-0.4479764,1.07325,0.5814313,1.07325,-0.6929708,0.1431,0.0001895018,1.07325,0.01953125,1.07325,-1.62207,1.07325,-2.010742,1.07325,310.9756,1.07325,38.65854,1.07325,24.45122,2.1465,-86.8,2.1465,2.3,2.1465,85.4,0.08255769,-48.46683,1.07325,-48.46683,1.07325,-48.46683,1.07325,-48.46683
0.08307692,-2.601663E-05,1.08,-0.9350355,1.08,0.5298182,1.08,0.5254684,0.08307692,-3.994812E-05,1.08,-1.104639,1.08,0.489742,1.08,-0.1424975,0.08307692,3.004501E-05,1.08,-1.937981,1.08,0.4606056,1.08,-0.06592293,0.08307692,-0.0001300832,1.08,-0.7928786,1.08,1.218616,1.08,-1.126584,0.144,0.0001864805,1.08,0.07910156,1.08,-1.328125,1.08,-2.254395,1.08,275.5488,1.08,24.57317,1.08,29.69512,2.16,-87,2.16,1.3,2.16,81.8,0.08307692,-48.46683,1.08,-48.46683,1.08,-48.46683,1.08,-48.46683
0.08359616,-6.193637E-05,1.08675,-0.7911839,1.08675,0.7118169,1.08675,0.6191565,0.08359616,-4.934768E-05,1.08675,-1.041741,1.08675,0.6464595,1.08675,-0.05292765,0.08359616,2.819867E-05,1.08675,-1.897857,1.08675,-0.1600409,1.08675,-0.2554514,0.08359616,-0.0001304189,1.08675,-1.669009,1.08675,1.827924,1.08675,-1.511568,0.1449,0.0001831235,1.08675,0.1108398,1.08675,-1.151855,1.08675,-2.494629,1.08675,227.1951,1.08675,47.80488,1.08675,31.95122,2.1735,-87.4,2.1735,0.8,2.1735,80.7,0.08359616,-48.46683,1.08675,-48.46683,1.08675,-48.46683,1.08675,-48.46683
0.08411539,-0.0001013809,1.0935,-0.6033776,1.0935,0.6713728,1.0935,0.7087713,0.08411539,-5.169757E-05,1.0935,-1.00243,1.0935,0.6033622,1.0935,0.1221407,0.08411539,2.769513E-05,1.0935,-1.725325,1.0935,-0.4527987,1.0935,-0.5809458,0.08411539,-0.0001310903,1.0935,-1.950481,1.0935,1.91952,1.0935,-1.645299,0.1458,0.0001817807,1.0935,0.03662109,1.0935,-0.9487305,1.0935,-2.694824,1.0935,160.9146,1.0935,92.31708,1.0935,32.43903,2.187,-87.6,2.187,0.3,2.187,77.5,0.08411539,-48.46683,1.0935,-48.46683,1.0935,-48.46683,1.0935,-48.46683
0.08463462,-0.0001549249,1.10025,-0.4395466,1.10025,0.4327523,1.10025,0.6273034,0.08463462,-4.901198E-05,1.10025,-0.9906371,1.10025,0.3604501,1.10025,0.2361388,0.08463462,3.021286E-05,1.10025,-1.612978,1.10025,-0.3942471,1.10025,-0.7787147,0.08463462,-0.0001292439,1.10025,-1.506469,1.10025,1.744294,1.10025,-1.928971,0.1467,0.0001787594,1.10025,-0.1323242,1.10025,-0.7543945,1.10025,-2.790039,1.10025,91.28049,1.10025,114.5122,1.10025,29.45122,2.2005,-86.8,2.2005,-0.1,2.2005,75.7,0.08463462,-48.46683,1.10025,-48.46683,1.10025,-48.46683,1.10025,-48.46683
0.08515385,-0.000256138,1.107,-0.3796084,1.107,0.1294213,1.107,0.4480738,0.08515385,-4.196231E-05,1.107,-0.9945682,1.107,-0.01567174,1.107,0.1262121,0.08515385,3.642328E-05,1.107,-1.641065,1.107,-0.1951718,1.107,-0.7086715,0.08515385,-0.0001243763,1.107,-0.222006,1.107,1.043391,1.107,-1.876289,0.1476,0.000175906,1.107,-0.2817383,1.107,-0.5478516,1.107,-2.83252,1.107,21.89024,1.107,98.47561,1.107,25.54878,2.214,-87,2.214,-0.6,2.214,72.7,0.08515385,-48.46683,1.107,-48.46683,1.107,-48.46683,1.107,-48.46683
0.08567308,-0.0003491264,1.11375,-0.3356538,1.11375,-0.1455989,1.11375,0.3747526,0.08567308,-3.239491E-05,1.11375,-0.982775,1.11375,-0.3565322,1.11375,-0.02442815,0.08567308,4.112306E-05,1.11375,-1.629028,1.11375,-0.02732406,1.11375,-0.5521045,0.08567308,-0.0001195087,1.11375,0.3647242,1.11375,0.764622,1.11375,-1.649352,0.1485,0.000170367,1.11375,-0.3144531,1.11375,-0.4106445,1.11375,-2.849121,1.11375,-30.12195,1.11375,63.84146,1.11375,20.18293,2.2275,-87.2,2.2275,0.2,2.2275,71.4,0.08567308,-48.46683,1.11375,-48.46683,1.11375,-48.46683,1.11375,-48.46683
0.08619231,-0.0003684291,1.1205,-0.2677239,1.1205,-0.3478196,1.1205,0.4562206,0.08619231,-1.963836E-05,1.1205,-0.9198773,1.1205,-0.5445931,1.1205,0.004071358,0.08619231,4.733349E-05,1.1205,-1.588904,1.1205,0.1678478,1.1205,-0.4573403,0.08619231,-0.0001156481,1.1205,0.2775075,1.1205,0.7287804,1.1205,-1.438624,0.1494,0.0001696956,1.1205,-0.2539063,1.1205,-0.3618164,1.1205,-2.780273,1.1205,-82.2561,1.1205,21.70732,1.1205,12.07317,2.241,-87.2,2.241,0.6,2.241,70.3,0.08619231,-48.46683,1.1205,-48.46683,1.1205,-48.46683,1.1205,-48.46683
0.08671154,-0.0003170672,1.12725,-0.1798145,1.12725,-0.44893,1.12725,0.5987895,0.08671154,-1.02388E-05,1.12725,-0.8373243,1.12725,-0.5014958,1.12725,0.08956987,0.08671154,5.52224E-05,1.12725,-1.596929,1.12725,0.3552127,1.12725,-0.4491,0.08671154,-0.0001072557,1.12725,-0.1387538,1.12725,0.7885165,1.12725,-1.280578,0.1503,0.0001683528,1.12725,-0.1401367,1.12725,-0.4282227,1.12725,-2.753418,1.12725,-140.4268,1.12725,-0.4268293,1.12725,3.902439,2.2545,-86.9,2.2545,1.1,2.2545,67.4,0.08671154,-48.46683,1.12725,-48.46683,1.12725,-48.46683,1.12725,-48.46683
0.08723077,-0.0001722133,1.134,-0.1758187,1.134,-0.3275976,1.134,0.7413585,0.08723077,-1.359579E-05,1.134,-0.7980132,1.134,-0.2507479,1.134,0.0773558,0.08723077,6.160067E-05,1.134,-1.568842,1.134,0.3317922,1.134,-0.5232633,0.08723077,-9.466698E-05,1.134,-0.5114067,1.134,0.8801118,1.134,-1.150899,0.1512,0.0001633173,1.134,0.00390625,1.134,-0.5942383,1.134,-2.668945,1.134,-199.3902,1.134,-16.09756,1.134,-3.414634,2.268,-86.6,2.268,1.5,2.268,65.5,0.08723077,-48.46683,1.134,-48.46683,1.134,-48.46683,1.134,-48.46683
0.08775,4.481575E-05,1.14075,-0.3156744,1.14075,0.05257739,1.14075,0.9531752,0.08775,-1.896696E-05,1.14075,-0.8648419,1.14075,0.1880609,1.14075,0.02035679,0.08775,6.462196E-05,1.14075,-1.388285,1.14075,0.007806874,1.14075,-0.6674697,0.08775,-8.358892E-05,1.14075,-0.5867302,1.14075,0.9557775,1.14075,-1.013115,0.1521,0.0001606317,1.14075,-0.0546875,1.14075,-1.131836,1.14075,-1.497559,1.14075,-226.5244,1.14075,-29.26829,1.14075,-0.4268293,2.2815,-86.3,2.2815,1.2,2.2815,64.9,0.08775,-48.46683,1.14075,-48.46683,1.14075,-48.46683,1.14075,-48.46683
0.08826923,0.0001784237,1.1475,-0.855118,1.1475,0.7037281,1.1475,0.6761842,0.08826923,-1.695277E-05,1.1475,-1.218641,1.1475,0.8227665,1.1475,0.1750684,0.08826923,6.327917E-05,1.1475,-1.231802,1.1475,-0.5269639,1.1475,-0.5603449,0.08826923,-7.553216E-05,1.1475,-0.6580893,1.1475,0.8641822,1.1475,-0.8631741,0.153,0.0001607996,1.1475,0.824707,1.1475,-1.962402,1.1475,0.9018555,1.1475,-179.2073,1.1475,-118.1707,1.1475,-36.03659,2.295,-86,2.295,1.5,2.295,64.6,0.08826923,-48.46683,1.1475,-48.46683,1.1475,-48.46683,1.1475,-48.46683
0.08878846,0.0001539178,1.15425,-1.810133,1.15425,1.460034,1.15425,-0.4236334,0.08878846,-1.493858E-05,1.15425,-1.796513,1.15425,1.179299,1.15425,-0.5862755,0.08878846,6.059357E-05,1.15425,-1.207727,1.15425,-1.046121,1.15425,-0.01648073,0.08878846,-6.764325E-05,1.15425,-0.6937689,1.15425,0.7367452,1.15425,-0.6402888,0.1539,0.0001582818,1.15425,0.7114258,1.15425,-5.591309,1.15425,8.308594,1.15425,46.21951,1.15425,15.06098,1.15425,65.30488,2.3085,-85.8,2.3085,2,2.3085,61.1,0.08878846,-48.46683,1.15425,-48.46683,1.15425,-48.46683,1.15425,-48.46683
0.0893077,8.509956E-05,1.161,-1.981956,1.161,0.331642,1.161,-1.780075,0.0893077,-1.661708E-05,1.161,-1.875135,1.161,0.06660491,1.161,-1.054482,0.0893077,5.941863E-05,1.161,-1.388285,1.161,-1.292038,1.161,0.8487577,0.0893077,-6.059357E-05,1.161,-0.8206295,1.161,0.6332027,1.161,-0.3485116,0.1548,0.0001545892,1.161,0.5175781,1.161,-2.734375,1.161,2.562012,1.161,-80.73171,1.161,-183.1707,1.161,-20.06098,2.322,-85.4,2.322,2.5,2.322,59,0.0893077,-48.46683,1.161,-48.46683,1.161,-48.46683,1.161,-48.46683
0.08982693,6.562906E-05,1.16775,-2.005931,1.16775,-1.650121,1.16775,-1.926718,0.08982693,-1.695277E-05,1.16775,-1.910515,1.16775,-1.645533,1.16775,-1.819897,0.08982693,5.035477E-05,1.16775,-1.440446,1.16775,-0.9173077,1.16775,1.689275,0.08982693,-5.790799E-05,1.16775,-1.522327,1.16775,0.7765693,1.16775,-0.04862953,0.1557,0.000156939,1.16775,1.533691,1.16775,-0.5458984,1.16775,0.6699219,1.16775,-21.95122,1.16775,-197.3781,1.16775,-56.89024,2.3355,-85.4,2.3355,2.6,2.3355,57.9,0.08982693,-48.46683,1.16775,-48.46683,1.16775,-48.46683,1.16775,-48.46683
0.09034616,7.87213E-05,1.1745,-1.514438,1.1745,-2.042429,1.1745,-0.9328082,0.09034616,-1.728847E-05,1.1745,-1.914445,1.1745,-2.005983,1.1745,-1.929824,0.09034616,2.769513E-05,1.1745,-1.412359,1.1745,0.5620949,1.1745,2.130135,0.09034616,-5.723659E-05,1.1745,-1.930659,1.1745,1.318177,1.1745,0.1864132,0.1566,0.0001555963,1.1745,0.8203125,1.1745,0.1025391,1.1745,-1.492676,1.1745,-152.9268,1.1745,29.5122,1.1745,-55,2.349,-85.3,2.349,2.8,2.349,56.9,0.09034616,-48.46683,1.1745,-48.46683,1.1745,-48.46683,1.1745,-48.46683
0.09086539,8.342107E-05,1.18125,0.1678269,1.18125,-1.674387,1.18125,-0.602863,0.09086539,-1.359579E-05,1.18125,-1.195054,1.18125,-2.056916,1.18125,-1.29062,0.09086539,2.18204E-06,1.18125,-1.825634,1.18125,1.725319,1.18125,2.204298,0.09086539,-5.387961E-05,1.18125,-1.986161,1.18125,1.437649,1.18125,0.05268199,0.1575,0.0001519036,1.18125,0.7861328,1.18125,-0.574707,1.18125,-1.819824,1.18125,-323.7805,1.18125,182.6219,1.18125,-38.59756,2.3625,-85.2,2.3625,2.7,2.3625,57.8,0.09086539,-48.46683,1.18125,-48.46683,1.18125,-48.46683,1.18125,-48.46683
0.09138462,7.133593E-05,1.188,0.7272499,1.188,-0.9504373,1.188,-0.1792295,0.09138462,-6.881819E-06,1.188,-0.1140019,1.188,-1.716056,1.188,-0.07328444,0.09138462,-6.54612E-06,1.188,-1.921932,1.188,1.783871,1.188,1.763438,0.09138462,-4.766919E-05,1.188,-0.4122969,1.188,1.732347,1.188,-0.5025052,0.1584,0.0001502251,1.188,0.1074219,1.188,-1.861328,1.188,-0.6523438,1.188,-399.6342,1.188,76.7683,1.188,-15.48781,2.376,-85,2.376,3.6,2.376,56.6,0.09138462,-48.46683,1.188,-48.46683,1.188,-48.46683,1.188,-48.46683
0.09190385,5.421531E-05,1.19475,0.2797115,1.19475,-0.09706594,1.19475,-0.004073398,0.09190385,-7.385367E-06,1.19475,-0.2319349,1.19475,-0.1567174,1.19475,0.5414906,0.09190385,7.721065E-06,1.19475,-1.873783,1.19475,0.5659984,1.19475,0.403778,0.09190385,-4.078737E-05,1.19475,0.07928787,1.19475,1.592963,1.19475,-1.466991,0.1593,0.0001485466,1.19475,-0.03515625,1.19475,-2.268555,1.19475,0.04003906,1.19475,-274.7561,1.19475,-116.4024,1.19475,-29.81707,2.3895,-84.9,2.3895,3.3,2.3895,56.3,0.09190385,-48.46683,1.19475,-48.46683,1.19475,-48.46683,1.19475,-48.46683
0.09242308,2.047761E-05,1.2015,-0.4035837,1.2015,0.6673283,1.2015,0.3177251,0.09242308,-1.795987E-05,1.2015,-0.7940822,1.2015,1.116612,1.2015,0.2035679,0.09242308,2.400244E-05,1.2015,-1.39631,1.2015,-0.7689771,1.2015,-0.111245,0.09242308,-3.239491E-05,1.2015,-0.3052583,1.2015,1.891643,1.2015,-1.556145,0.1602,0.000145861,1.2015,0.1787109,1.2015,-2.138184,1.2015,-0.2539063,1.2015,-135.7927,1.2015,-378.1707,1.2015,-49.7561,2.403,-84.7,2.403,3.4,2.403,57.4,0.09242308,-48.46683,1.2015,-48.46683,1.2015,-48.46683,1.2015,-48.46683
0.09294231,-3.088426E-05,1.20825,-1.674273,1.20825,1.743143,1.20825,1.169065,0.09294231,-2.668803E-05,1.20825,-1.517404,1.20825,1.817922,1.20825,0.1506402,0.09294231,3.440909E-05,1.20825,-1.155566,1.20825,-1.815098,1.20825,-0.2142495,0.09294231,-2.383459E-05,1.20825,-0.7413416,1.20825,1.545174,1.20825,-0.4336133,0.1611,0.0001421683,1.20825,0.831543,1.20825,-1.455078,1.20825,-0.9345703,1.20825,-108.5976,1.20825,-523.9634,1.20825,-81.64635,2.4165,-85.1,2.4165,3.5,2.4165,54.7,0.09294231,-48.46683,1.20825,-48.46683,1.20825,-48.46683,1.20825,-48.46683
0.09346154,-5.404746E-05,1.215,-1.914026,1.215,1.973674,1.215,0.9898358,0.09346154,-2.735943E-05,1.215,-1.147881,1.215,1.915871,1.215,0.1262121,0.09346154,4.011597E-05,1.215,-1.023158,1.215,-2.021981,1.215,-0.5685853,0.09346154,-1.661708E-05,1.215,-0.816665,1.215,0.9517952,1.215,0.1296788,0.162,0.0001388113,1.215,0.4487305,1.215,-1.346191,1.215,-0.8779297,1.215,-169.2683,1.215,-183.0488,1.215,-7.926829,2.43,-85,2.43,3.9,2.43,55.1,0.09346154,-48.46683,1.215,-48.46683,1.215,-48.46683,1.215,-48.46683
0.09398077,-2.383459E-05,1.22175,-0.427559,1.22175,1.193102,1.22175,0.6354501,0.09398077,-2.450599E-05,1.22175,0.0314488,1.22175,1.93546,1.22175,0.5537047,0.09398077,4.414435E-05,1.22175,-0.8105015,1.22175,-1.697995,1.22175,-1.198973,0.09398077,-9.231708E-06,1.22175,-0.463834,1.22175,0.8960415,1.22175,0.3728264,0.1629,0.0001414969,1.22175,0.1875,1.22175,-1.4375,1.22175,-0.362793,1.22175,-265.9146,1.22175,215.6098,1.22175,41.82927,2.4435,-84.5,2.4435,4,2.4435,54.8,0.09398077,-48.46683,1.22175,-48.46683,1.22175,-48.46683,1.22175,-48.46683
0.0945,8.224613E-06,1.2285,0.1238722,1.2285,0.8169717,1.2285,0.8472669,0.0945,-2.484169E-05,1.2285,0.06289759,1.2285,1.304673,1.2285,0.4397067,0.0945,4.817273E-05,1.2285,-0.6419814,1.2285,-0.3239853,1.2285,-1.705756,0.0945,-1.678492E-06,1.2285,0.2140772,1.2285,0.9199358,1.2285,0.7497053,0.1638,0.0001435111,1.2285,-0.1582031,1.2285,-1.053223,1.2285,-0.3154297,1.2285,-290.5488,1.2285,285.2439,1.2285,47.31707,2.457,-84.4,2.457,3.9,2.457,54.8,0.0945,-48.46683,1.2285,-48.46683,1.2285,-48.46683,1.2285,-48.46683
0.09501923,-5.539025E-06,1.23525,-0.03196703,1.23525,0.7077725,1.23525,1.120185,0.09501923,-2.702373E-05,1.23525,-0.2437282,1.23525,0.8110127,1.23525,0.5537047,0.09501923,4.951553E-05,1.23525,-0.3410526,1.23525,1.241293,1.23525,-1.854082,0.09501923,6.378271E-06,1.23525,0.4876204,1.23525,0.2469092,1.23525,0.7010757,0.1647,0.0001416648,1.23525,-0.5473633,1.23525,-0.6757813,1.23525,-0.5883789,1.23525,-203.4146,1.23525,142.561,1.23525,36.70732,2.4705,-84,2.4705,3.8,2.4705,55.1,0.09501923,-48.46683,1.23525,-48.46683,1.23525,-48.46683,1.23525,-48.46683
0.09553846,-4.850843E-05,1.242,-0.3356538,1.242,0.4448856,1.242,1.201652,0.09553846,-3.138781E-05,1.242,-0.5385606,1.242,0.9481406,1.242,0.6799168,0.09553846,4.733349E-05,1.242,-0.05617337,1.242,1.822905,1.242,-1.57391,0.09553846,1.258869E-05,1.242,0.3409378,1.242,-0.3265573,1.242,0.7132331,0.1656,0.0001440146,1.242,-1.223633,1.242,-0.543457,1.242,-1.544922,1.242,-192.2561,1.242,142.9878,1.242,68.04878,2.484,-83.9,2.484,3.9,2.484,53.7,0.09553846,-48.46683,1.242,-48.46683,1.242,-48.46683,1.242,-48.46683
0.09605769,-8.661021E-05,1.24875,-0.8311427,1.24875,0.1375101,1.24875,1.507157,0.09605769,-4.095522E-05,1.24875,-1.167537,1.24875,1.026499,1.24875,0.4519207,0.09605769,4.280156E-05,1.24875,-0.06419814,1.24875,1.600409,1.24875,-1.252536,0.09605769,1.812772E-05,1.24875,-0.05153712,1.24875,-0.8960415,1.24875,0.9361185,0.1665,0.0001440146,1.24875,-1.066406,1.24875,-0.8608398,1.24875,-1.664551,1.24875,-271.8293,1.24875,105.3049,1.24875,49.87805,2.4975,-83.9,2.4975,4.4,2.4975,53.3,0.09605769,-48.46683,1.24875,-48.46683,1.24875,-48.46683,1.24875,-48.46683
0.09657692,-0.0001143053,1.2555,-1.550401,1.2555,-0.004044414,1.2555,1.714901,0.09657692,-5.018692E-05,1.2555,-1.57244,1.2555,0.9481406,1.2555,0.7328444,0.09657692,3.944457E-05,1.2555,-0.3490774,1.2555,0.7143289,1.2555,-1.141291,0.09657692,2.400244E-05,1.2555,-1.066422,1.2555,-1.676593,1.2555,1.090112,0.1674,0.0001416648,1.2555,-0.1293945,1.2555,-1.75,1.2555,-0.7724609,1.2555,-243.4756,1.2555,-158.2317,1.2555,-7.621952,2.511,-83.6,2.511,3.9,2.511,53.1,0.09657692,-48.46683,1.2555,-48.46683,1.2555,-48.46683,1.2555,-48.46683
0.09709615,-0.0001393149,1.26225,-1.72622,1.26225,-0.1981763,1.26225,1.299414,0.09709615,-4.850843E-05,1.26225,-1.403403,1.26225,1.191052,1.26225,0.6921309,0.09709615,3.910888E-05,1.26225,-0.8064891,1.26225,0.09758592,1.26225,-1.186613,0.09709615,2.853437E-05,1.26225,-1.863265,1.26225,-1.565086,1.26225,0.4417183,0.1683,0.0001448539,1.26225,0.2915039,1.26225,-1.976563,1.26225,-0.527832,1.26225,-66.15854,1.26225,-336.8293,1.26225,-9.390244,2.5245,-82.9,2.5245,4.1,2.5245,53.2,0.09709615,-48.46683,1.26225,-48.46683,1.26225,-48.46683,1.26225,-48.46683
0.09761538,-0.0001596246,1.269,-1.498454,1.269,-0.1779542,1.269,0.7983861,0.09761538,-3.239491E-05,1.269,-1.084984,1.269,1.406539,1.269,0.2117106,0.09761538,4.129091E-05,1.269,-1.155566,1.269,-0.214689,1.269,-1.190733,0.09761538,2.836652E-05,1.269,-1.974268,1.269,-0.8761294,1.269,-0.368774,0.1692,0.000149218,1.269,0.5097656,1.269,-1.444824,1.269,-1.025879,1.269,-30.54878,1.269,-275.7927,1.269,-2.317073,2.538,-83.2,2.538,3.9,2.538,52.8,0.09761538,-48.46683,1.269,-48.46683,1.269,-48.46683,1.269,-48.46683
0.09813461,-0.0001524071,1.27575,-1.190772,1.27575,0.2992866,1.27575,0.7169181,0.09813461,-1.359579E-05,1.27575,-0.8255309,1.27575,1.198889,1.27575,0.06107037,0.09813461,4.263371E-05,1.27575,-1.203715,1.27575,-0.4801227,1.27575,-1.017685,0.09813461,2.232395E-05,1.27575,-1.990125,1.27575,-0.1194722,1.27575,-0.0729443,0.1701,0.0001498894,1.27575,0.4418945,1.27575,-1.049316,1.27575,-0.8632813,1.27575,-102.622,1.27575,-93.10976,1.27575,18.65854,2.5515,-82.5,2.5515,3.9,2.5515,52.2,0.09813461,-48.46683,1.27575,-48.46683,1.27575,-48.46683,1.27575,-48.46683
0.09865385,-8.308538E-05,1.2825,-0.9630067,1.2825,1.083903,1.2825,0.8065329,0.09865385,-6.042573E-06,1.2825,-0.7311845,1.2825,0.9128791,1.2825,0.1099267,0.09865385,4.045167E-05,1.2825,-1.04322,1.2825,-0.929018,1.2825,-0.6097871,0.09865385,1.460288E-05,1.2825,-1.645223,1.2825,0.3185925,1.2825,0.158046,0.171,0.0001495537,1.2825,0.2993164,1.2825,-1.001953,1.2825,-0.2797852,1.2825,-165.3049,1.2825,71.21951,1.2825,33.47561,2.565,-81.8,2.565,3.6,2.565,50.8,0.09865385,-48.46683,1.2825,-48.46683,1.2825,-48.46683,1.2825,-48.46683
0.09917308,-1.577783E-05,1.28925,-0.6753034,1.28925,1.290168,1.28925,0.6395236,0.09917308,-1.762417E-05,1.28925,-0.9159462,1.28925,0.9481406,1.28925,-0.07328444,0.09917308,3.776608E-05,1.28925,-0.8145139,1.28925,-1.63554,1.28925,-0.09476422,0.09917308,9.903106E-06,1.28925,-0.8047718,1.28925,0.3902759,1.28925,0.2350427,0.1719,0.0001527428,1.28925,0.02880859,1.28925,-1.094238,1.28925,-0.1992188,1.28925,-164.0854,1.28925,75.60976,1.28925,40.85366,2.5785,-81.6,2.5785,3.4,2.5785,49.7,0.09917308,-48.46683,1.28925,-48.46683,1.28925,-48.46683,1.28925,-48.46683
0.09969231,-4.733349E-05,1.296,-0.7911839,1.296,0.9019043,1.296,0.3828995,0.09969231,-3.440909E-05,1.296,-0.9277395,1.296,0.7600796,1.296,-0.2890664,0.09969231,3.894103E-05,1.296,-0.6058699,1.296,-1.994656,1.296,0.2430908,0.09969231,9.063859E-06,1.296,-0.4083325,1.296,0.489836,1.296,0.360669,0.1728,0.0001503929,1.296,-0.03320313,1.296,-1.086914,1.296,-0.3530273,1.296,-130.5488,1.296,-21.82927,1.296,29.32927,2.592,-80.5,2.592,3.9,2.592,49,0.09969231,-48.46683,1.296,-48.46683,1.296,-48.46683,1.296,-48.46683
0.1002115,-0.0001367971,1.30275,-1.042924,1.30275,0.4529744,1.30275,0.3095783,0.1002115,-4.011597E-05,1.30275,-0.8215998,1.30275,0.4388088,1.30275,-0.2931378,0.1002115,4.145876E-05,1.30275,-0.6018575,1.30275,-2.049304,1.30275,0.1771679,0.1002115,1.05745E-05,1.30275,-0.594659,1.30275,0.4340823,1.30275,0.1175214,0.1737,0.0001507286,1.30275,0.07714844,1.30275,-1.203125,1.30275,-0.3217773,1.30275,-93.47561,1.30275,-101.4024,1.30275,20.4878,2.6055,-79.9,2.6055,3.5,2.6055,47.6,0.1002115,-48.46683,1.30275,-48.46683,1.30275,-48.46683,1.30275,-48.46683
0.1007308,-0.0002002441,1.3095,-1.162801,1.3095,0.06875504,1.3095,0.3584591,0.1007308,-4.313725E-05,1.3095,-0.8294621,1.3095,0.3134349,1.3095,-0.3338513,0.1007308,4.313725E-05,1.3095,-0.7663652,1.3095,-2.053208,1.3095,-0.135966,0.1007308,1.174945E-05,1.3095,-0.8008075,1.3095,0.21505,1.3095,-0.1904657,0.1746,0.0001594568,1.3095,0.1391602,1.3095,-1.289551,1.3095,-0.2807617,1.3095,-71.28049,1.3095,-118.7805,1.3095,25.12195,2.619,-78.8,2.619,3.6,2.619,47.1,0.1007308,-48.46683,1.3095,-48.46683,1.3095,-48.46683,1.3095,-48.46683
0.10125,-0.0002437171,1.31625,-1.162801,1.31625,-0.1455989,1.31625,0.439927,0.10125,-5.4551E-05,1.31625,-0.8805663,1.31625,0.2076506,1.31625,-0.2483528,0.10125,4.414435E-05,1.31625,-0.9268606,1.31625,-1.63554,1.31625,-0.3502156,0.10125,5.539025E-06,1.31625,-0.8245938,1.31625,0.04380647,1.31625,-0.2634099,0.1755,-0.0009961852,1.31625,0.06347656,1.31625,-1.178223,1.31625,-0.2719727,1.31625,-80.85366,1.31625,-78.35366,1.31625,26.76829,2.6325,-77.7,2.6325,3.6,2.6325,45.6,0.10125,-48.46683,1.31625,-48.46683,1.31625,-48.46683,1.31625,-48.46683
0.1017692,-0.0002601663,1.323,-1.094871,1.323,-0.1860431,1.323,0.480661,0.1017692,-6.881819E-05,1.323,-0.8884284,1.323,0.121456,1.323,-0.08956987,0.1017692,4.414435E-05,1.323,-0.9990835,1.323,-1.034411,1.323,-0.4120183,0.1017692,-7.553216E-06,1.323,-0.8523446,1.323,-0.04778888,1.323,-0.1823607,0.1764,-0.005099931,1.323,-0.005371094,1.323,-1.110352,1.323,-0.2451172,1.323,-87.2561,1.323,-57.5,1.323,19.7561,2.646,-76.6,2.646,3.4,2.646,44.3,0.1017692,-48.46683,1.323,-48.46683,1.323,-48.46683,1.323,-48.46683
0.1022885,-0.0001935302,1.32975,-1.042924,1.32975,-0.1253769,1.32975,0.4928812,0.1022885,-7.435721E-05,1.32975,-0.8884284,1.32975,0.2115685,1.32975,-0.02035679,0.1022885,3.390555E-05,1.32975,-1.047232,1.32975,-0.5464812,1.32975,-0.4202587,0.1022885,-2.500954E-05,1.32975,-1.006956,1.32975,0.07168332,1.32975,0,0.1773,-0.005228839,1.32975,-0.0234375,1.32975,-1.115234,1.32975,-0.2470703,1.32975,-79.08537,1.32975,-75.73171,1.32975,12.92683,2.6595,-74.6,2.6595,2.7,2.6595,41.9,0.1022885,-48.46683,1.32975,-48.46683,1.32975,-48.46683,1.32975,-48.46683
0.1028077,-0.0001003738,1.3365,-1.042924,1.3365,0,1.3365,0.5173216,0.1028077,-6.462196E-05,1.3365,-0.9120151,1.3365,0.4113833,1.3365,0.03664222,0.1028077,1.292439E-05,1.3365,-1.087356,1.3365,-0.12491,1.3365,-0.494422,0.1028077,-4.313725E-05,1.3365,-1.248784,1.3365,0.3146101,1.3365,0.1783083,0.1782,-0.005156329,1.3365,-0.0546875,1.3365,-1.147949,1.3365,-0.2631836,1.3365,-62.62195,1.3365,-95.91463,1.3365,9.02439,2.673,-72.4,2.673,3,2.673,41.1,0.1028077,-48.46683,1.3365,-48.46683,1.3365,-48.46683,1.3365,-48.46683
0.1033269,-1.695277E-05,1.34325,-1.082883,1.34325,0.1334657,1.34325,0.5499088,0.1033269,-2.098116E-05,1.34325,-0.9749127,1.34325,0.5955262,1.34325,0.1221407,0.1033269,2.517739E-06,1.34325,-1.095381,1.34325,0.2966612,1.34325,-0.6139073,0.1033269,-5.505455E-05,1.34325,-1.478719,1.34325,0.4420471,1.34325,0.1985706,0.1791,-0.005083818,1.34325,-0.07373047,1.34325,-1.163086,1.34325,-0.2612305,1.34325,-54.87805,1.34325,-85,1.34325,7.5,2.6865,-70.8,2.6865,2.8,2.6865,40.1,0.1033269,-48.46683,1.34325,-48.46683,1.34325,-48.46683,1.34325,-48.46683
0.1038462,7.418936E-05,1.35,-1.134829,1.35,0.2588425,1.35,0.5865694,0.1038462,4.196231E-05,1.35,-1.084984,1.35,0.7561617,1.35,0.1628543,0.1038462,1.594568E-05,1.35,-1.035195,1.35,0.7065222,1.35,-0.7251522,0.1038462,-5.824368E-05,1.35,-1.431146,1.35,0.3783286,1.35,0.04052461,0.18,-0.005015335,1.35,-0.02685547,1.35,-1.161621,1.35,-0.269043,1.35,-52.19512,1.35,-70.97561,1.35,2.621951,2.7,-67.2,2.7,3.6,2.7,37.1,0.1038462,-48.46683,1.35,-48.46683,1.35,-48.46683,1.35,-48.46683
0.1043654,0.0001381399,1.35675,-1.142821,1.35675,0.3923082,1.35675,0.5662023,0.1043654,7.150377E-05,1.35675,-1.140019,1.35675,0.8854535,1.35675,0.2687096,0.1043654,3.675898E-05,1.35675,-0.8867368,1.35675,1.026604,1.35675,-0.7498734,0.1043654,-5.48867E-05,1.35675,-1.276535,1.35675,0.2309796,1.35675,-0.1377837,0.1809,-0.004946853,1.35675,0.02148438,1.35675,-1.151367,1.35675,-0.2856445,1.35675,-48.78049,1.35675,-64.93903,1.35675,-1.463415,2.7135,-65,2.7135,3.9,2.7135,35.4,0.1043654,-48.46683,1.35675,-48.46683,1.35675,-48.46683,1.35675,-48.46683
0.1048846,0.0001576104,1.3635,-1.110854,1.3635,0.4934185,1.3635,0.521395,0.1048846,5.287251E-05,1.3635,-1.116432,1.3635,0.916797,1.3635,0.2646383,0.1048846,4.632639E-05,1.3635,-0.7262415,1.3635,1.167128,1.3635,-0.6839504,0.1048846,-5.018692E-05,1.3635,-1.074351,1.3635,0.147349,1.3635,-0.2715149,0.1818,-0.004881056,1.3635,0.0390625,1.3635,-1.171387,1.3635,-0.2856445,1.3635,-43.84146,1.3635,-56.28049,1.3635,1.402439,2.727,-63,2.727,2.8,2.727,35.9,0.1048846,-48.46683,1.3635,-48.46683,1.3635,-48.46683,1.3635,-48.46683
0.1054038,0.0001482109,1.37025,-1.050916,1.37025,0.5095962,1.37025,0.4521472,0.1054038,1.829557E-05,1.37025,-1.022086,1.37025,0.8658639,1.37025,0.1791397,0.1054038,4.414435E-05,1.37025,-0.6259319,1.37025,1.061735,1.37025,-0.5232633,0.1054038,-4.682994E-05,1.37025,-0.8999172,1.37025,0.1951379,1.37025,-0.2958297,0.1827,-0.004812573,1.37025,0.04394531,1.37025,-1.137695,1.37025,-0.2509766,1.37025,-38.29268,1.37025,-45.12195,1.37025,6.097561,2.7405,-60.6,2.7405,0.5,2.7405,33.9,0.1054038,-48.46683,1.37025,-48.46683,1.37025,-48.46683,1.37025,-48.46683
0.1059231,0.0001388113,1.377,-0.9909778,1.377,0.4812853,1.377,0.399193,0.1059231,-3.021286E-06,1.377,-0.9316706,1.377,0.7561617,1.377,0.1017839,0.1059231,4.045167E-05,1.377,-0.6540185,1.377,0.7845908,1.377,-0.3996578,0.1059231,-4.380865E-05,1.377,-0.8245938,1.377,0.3026629,1.377,-0.2350427,0.1836,-0.004750805,1.377,0.02246094,1.377,-1.067383,1.377,-0.2143555,1.377,-33.41463,1.377,-33.65854,1.377,9.634147,2.754,-58.7,2.754,1,2.754,34.3,0.1059231,-48.46683,1.377,-48.46683,1.377,-48.46683,1.377,-48.46683
0.1064423,0.0001871519,1.38375,-0.9670025,1.38375,0.400397,1.38375,0.3421655,0.1064423,-1.242084E-05,1.38375,-0.8727041,1.38375,0.6307877,1.38375,0.01628543,0.1064423,3.759823E-05,1.38375,-0.7543281,1.38375,0.4488953,1.38375,-0.3543358,0.1064423,-4.347295E-05,1.38375,-0.8245938,1.38375,0.4221351,1.38375,-0.1458886,0.1845,-0.004689036,1.38375,0.0004882813,1.38375,-1.040527,1.38375,-0.1733398,1.38375,-31.82927,1.38375,-26.09756,1.38375,11.64634,2.7675,-57.4,2.7675,3,2.7675,33.6,0.1064423,-48.46683,1.38375,-48.46683,1.38375,-48.46683,1.38375,-48.46683
0.1069615,0.000222736,1.3905,-0.9909778,1.3905,0.3235531,1.3905,0.2769911,0.1069615,-1.863126E-05,1.3905,-0.8962907,1.3905,0.489742,1.3905,-0.06921308,0.1069615,3.743038E-05,1.3905,-0.8746997,1.3905,0.09758592,1.3905,-0.3254945,0.1069615,-4.380865E-05,1.3905,-0.8563089,1.3905,0.4858536,1.3905,-0.08915414,0.1854,-0.004628611,1.3905,-0.02148438,1.3905,-1.038574,1.3905,-0.105957,1.3905,-30.67073,1.3905,-25.97561,1.3905,12.98781,2.781,-56.2,2.781,4.9,2.781,32,0.1069615,-48.46683,1.3905,-48.46683,1.3905,-48.46683,1.3905,-48.46683
0.1074808,0.0001938659,1.39725,-1.042924,1.39725,0.2386204,1.39725,0.1914497,0.1074808,-2.098116E-05,1.39725,-0.9356017,1.39725,0.3330246,1.39725,-0.2076393,0.1074808,4.145876E-05,1.39725,-0.983034,1.39725,-0.2381097,1.39725,-0.2719321,0.1074808,-4.246586E-05,1.39725,-0.8761309,1.39725,0.4778888,1.39725,-0.09320661,0.1863,-0.004568185,1.39725,-0.006835938,1.39725,-1.069336,1.39725,-0.07617188,1.39725,-27.98781,1.39725,-35.91463,1.39725,12.7439,2.7945,-55.7,2.7945,4.4,2.7945,33.2,0.1074808,-48.46683,1.39725,-48.46683,1.39725,-48.46683,1.39725,-48.46683
0.108,0.0001540856,1.404,-1.086879,1.404,0.1779542,1.404,0.1059084,0.108,-2.568093E-05,1.404,-0.9591883,1.404,0.1567174,1.404,-0.2564955,0.108,4.33051E-05,1.404,-1.11143,1.404,-0.5620949,1.404,-0.1689275,0.108,-3.860533E-05,1.404,-0.8682021,1.404,0.4101879,1.404,-0.1823607,0.1872,-0.004509102,1.404,0.04150391,1.404,-1.104004,1.404,-0.06738281,1.404,-23.17073,1.404,-49.02439,1.404,10.42683,2.808,-56.2,2.808,4.9,2.808,31.9,0.108,-48.46683,1.404,-48.46683,1.404,-48.46683,1.404,-48.46683
0.1085192,0.0001629816,1.41075,-1.102862,1.41075,0.07279946,1.41075,0.01629359,0.1085192,-3.508049E-05,1.41075,-0.9591883,1.41075,0.01567174,1.41075,-0.2972091,0.1085192,4.028382E-05,1.41075,-1.215752,1.41075,-0.839239,1.41075,-0.07004312,0.1085192,-3.30663E-05,1.41075,-0.8483802,1.41075,0.3504518,1.41075,-0.2958297,0.1881,-0.004452705,1.41075,0.07910156,1.41075,-1.132324,1.41075,-0.05517578,1.41075,-19.7561,1.41075,-54.93903,1.41075,8.658537,2.8215,-57.7,2.8215,7.2,2.8215,32,0.1085192,-48.46683,1.41075,-48.46683,1.41075,-48.46683,1.41075,-48.46683
0.1090385,0.0001891661,1.4175,-1.082883,1.4175,-0.06066621,1.4175,-0.05702758,0.1090385,-4.649424E-05,1.4175,-0.9198773,1.4175,-0.1136201,1.4175,-0.3501368,0.1090385,3.390555E-05,1.4175,-1.183653,1.4175,-0.9875696,1.4175,-0.07828348,0.1090385,-2.618448E-05,1.4175,-0.8325226,1.4175,0.3225749,1.4175,-0.3282493,0.189,-0.004398993,1.4175,0.09814453,1.4175,-1.128418,1.4175,-0.03222656,1.4175,-18.59756,1.4175,-50.30488,1.4175,9.085366,2.835,-59.2,2.835,6.8,2.835,31.4,0.1090385,-48.46683,1.4175,-48.46683,1.4175,-48.46683,1.4175,-48.46683
0.1095577,0.0001757382,1.42425,-1.050916,1.42425,-0.1819986,1.42425,-0.08146796,0.1095577,-4.5655E-05,1.42425,-0.8805663,1.42425,-0.2037327,1.42425,-0.3338513,0.1095577,2.18204E-05,1.42425,-0.983034,1.42425,-0.9134043,1.42425,-0.156567,0.1095577,-1.896696E-05,1.42425,-0.8245938,1.42425,0.3305397,1.42425,-0.2877247,0.1899,0.0005181506,1.42425,0.09960938,1.42425,-1.068848,1.42425,-0.03027344,1.42425,-22.13415,1.42425,-37.5,1.42425,9.085366,2.8485,-60.7,2.8485,6.2,2.8485,32.2,0.1095577,-48.46683,1.42425,-48.46683,1.42425,-48.46683,1.42425,-48.46683
0.1100769,0.0001373007,1.431,-1.014953,1.431,-0.2426648,1.431,-0.05702758,0.1100769,-2.937362E-05,1.431,-0.868773,1.431,-0.1684712,1.431,-0.2931378,0.1100769,9.735257E-06,1.431,-0.742291,1.431,-0.6635844,1.431,-0.1895284,0.1100769,-1.678492E-05,1.431,-0.8047718,1.431,0.3305397,1.431,-0.1783083,0.1908,0.005435462,1.431,0.1079102,1.431,-1.02002,1.431,-0.01074219,1.431,-25.85366,1.431,-29.14634,1.431,8.04878,2.862,-63,2.862,6.2,2.862,33.5,0.1100769,-48.46683,1.431,-48.46683,1.431,-48.46683,1.431,-48.46683
0.1105962,0.0001310903,1.43775,-1.006961,1.43775,-0.1981763,1.43775,-0.02036699,0.1105962,-8.89601E-06,1.43775,-0.8569798,1.43775,-0.07835872,1.43775,-0.2605669,0.1105962,3.692683E-06,1.43775,-0.6459937,1.43775,-0.3356956,1.43775,-0.1771679,0.1105962,-1.762417E-05,1.43775,-0.7809855,1.43775,0.3305397,1.43775,-0.09320661,0.1917,0.005499916,1.43775,0.09033203,1.43775,-0.9970703,1.43775,-0.03271484,1.43775,-28.90244,1.43775,-23.10976,1.43775,7.743903,2.8755,-65.1,2.8755,5.8,2.8755,34.2,0.1105962,-48.46683,1.43775,-48.46683,1.43775,-48.46683,1.43775,-48.46683
0.1111154,0.0001440146,1.4445,-0.982986,1.4445,-0.09302153,1.4445,0,0.1111154,8.224613E-06,1.4445,-0.868773,1.4445,0.007835872,1.4445,-0.2564955,0.1111154,2.517739E-06,1.4445,-0.7382786,1.4445,0.01561375,1.4445,-0.156567,0.1111154,-1.644923E-05,1.4445,-0.7651279,1.4445,0.3424869,1.4445,-0.04457707,0.1926,0.005499916,1.4445,0.06787109,1.4445,-0.9853516,1.4445,-0.09179688,1.4445,-34.20732,1.4445,-12.5,1.4445,9.878049,2.889,-67.2,2.889,4.2,2.889,35.2,0.1111154,-48.46683,1.4445,-48.46683,1.4445,-48.46683,1.4445,-48.46683
0.1116346,0.000145861,1.45125,-0.9630067,1.45125,0.04044414,1.45125,0.02444039,0.1116346,1.292439E-05,1.45125,-0.8766353,1.45125,0.09403047,1.45125,-0.227996,0.1116346,2.517739E-06,1.45125,-0.930873,1.45125,0.3239853,1.45125,-0.1236055,0.1116346,-1.225299E-05,1.45125,-0.7730567,1.45125,0.3464693,1.45125,-0.02431476,0.1935,0.005499916,1.45125,0.04492188,1.45125,-1.001953,1.45125,-0.1147461,1.45125,-39.32927,1.45125,-2.621951,1.45125,11.28049,2.9025,-69.3,2.9025,2.8,2.9025,38.8,0.1116346,-48.46683,1.45125,-48.46683,1.45125,-48.46683,1.45125,-48.46683
0.1121539,0.0001121233,1.458,-0.9350355,1.458,0.1455989,1.458,0.02444039,0.1121539,-4.867628E-06,1.458,-0.868773,1.458,0.1606354,1.458,-0.2035679,0.1121539,-1.007096E-06,1.458,-1.099393,1.458,0.5269639,1.458,-0.1194853,0.1121539,-3.189135E-06,1.458,-0.8127006,1.458,0.3703638,1.458,-0.008104922,0.1944,0.005499916,1.458,0.006347656,1.458,-1.020508,1.458,-0.1098633,1.458,-42.19512,1.458,4.939024,1.458,13.04878,2.916,-72,2.916,1,2.916,40.9,0.1121539,-48.46683,1.458,-48.46683,1.458,-48.46683,1.458,-48.46683
0.1126731,3.776608E-05,1.46475,-0.9270438,1.46475,0.2143539,1.46475,0.02036699,0.1126731,-2.584878E-05,1.46475,-0.8766353,1.46475,0.2076506,1.46475,-0.2076393,0.1126731,-4.531929E-06,1.46475,-1.095381,1.46475,0.5425777,1.46475,-0.1194853,0.1126731,1.678492E-06,1.46475,-0.8444158,1.46475,0.3942582,1.46475,-0.008104922,0.1953,0.005499916,1.46475,0.0004882813,1.46475,-1.010254,1.46475,-0.1147461,1.46475,-43.71951,1.46475,7.012195,1.46475,14.32927,2.9295,-74.3,2.9295,-0.2,2.9295,43.8,0.1126731,-48.46683,1.46475,-48.46683,1.46475,-48.46683,1.46475,-48.46683
0.1131923,-6.327917E-05,1.4715,-0.9390314,1.4715,0.2547981,1.4715,0.02444039,0.1131923,-3.440909E-05,1.4715,-0.8962907,1.4715,0.2272403,1.4715,-0.1547116,0.1131923,-3.524834E-06,1.4715,-0.9990835,1.4715,0.3981506,1.4715,-0.1236055,0.1131923,-8.392462E-07,1.4715,-0.8642378,1.4715,0.4141703,1.4715,-0.04052461,0.1962,0.005499916,1.4715,0.004882813,1.4715,-1.012695,1.4715,-0.1230469,1.4715,-45.4878,1.4715,4.02439,1.4715,14.87805,2.943,-76.8,2.943,-1.2,2.943,45.8,0.1131923,-48.46683,1.4715,-48.46683,1.4715,-48.46683,1.4715,-48.46683
0.1137115,-0.0002056153,1.47825,-0.9470232,1.47825,0.2507537,1.47825,0.02444039,0.1137115,-3.323415E-05,1.47825,-0.908084,1.47825,0.2154865,1.47825,-0.1180694,0.1137115,-1.510643E-06,1.47825,-0.9027863,1.47825,0.1834615,1.47825,-0.1606871,0.1137115,8.392462E-07,1.47825,-0.8721665,1.47825,0.4460295,1.47825,-0.08510168,0.1971,0.005499916,1.47825,0.009277344,1.47825,-1.012207,1.47825,-0.1157227,1.47825,-48.41463,1.47825,7.560976,1.47825,17.37805,2.9565,-82.2,2.9565,-2.2,2.9565,53.8,0.1137115,-48.46683,1.47825,-48.46683,1.47825,-48.46683,1.47825,-48.46683
0.1142308,-0.000377493,1.485,-0.9590108,1.485,0.2022207,1.485,0.03666059,0.1142308,-3.30663E-05,1.485,-0.9002218,1.485,0.242912,1.485,-0.158783,0.1142308,1.007096E-06,1.485,-0.8827244,1.485,0.01951719,1.485,-0.2101294,0.1142308,7.888914E-06,1.485,-0.8800953,1.485,0.4739064,1.485,-0.1256263,0.198,0.005499916,1.485,-0.001953125,1.485,-1.010742,1.485,-0.1225586,1.485,-53.04878,1.485,20,1.485,20.73171,2.97,-84,2.97,-2.4,2.97,57.7,0.1142308,-48.46683,1.485,-48.46683,1.485,-48.46683,1.485,-48.46683
0.11475,-0.0004995193,1.49175,-0.9630067,1.49175,0.1375101,1.49175,0.08146796,0.11475,-3.810178E-05,1.49175,-0.8805663,1.49175,0.2115685,1.49175,-0.1180694,0.11475,6.378271E-06,1.49175,-0.8907492,1.49175,-0.02342062,1.49175,-0.2719321,0.11475,1.493858E-05,1.49175,-0.8800953,1.49175,0.4978008,1.49175,-0.1539935,0.1989,0.005499916,1.49175,-0.007324219,1.49175,-1.026367,1.49175,-0.1318359,1.49175,-56.7683,1.49175,31.09756,1.49175,21.76829,2.9835,-85.7,2.9835,-2.4,2.9835,61.9,0.11475,-48.46683,1.49175,-48.46683,1.49175,-48.46683,1.49175,-48.46683
0.1152692,-0.0005008621,1.4985,-0.9590108,1.4985,0.06471063,1.4985,0.1344222,0.1152692,-4.548715E-05,1.4985,-0.8844974,1.4985,0.1684712,1.4985,-0.1058553,0.1152692,1.393149E-05,1.4985,-0.9228482,1.4985,-0.01561375,1.4985,-0.2884128,0.1152692,1.913481E-05,1.4985,-0.8682021,1.4985,0.4818712,1.4985,-0.1864132,0.1998,0.005499916,1.4985,-0.04541016,1.4985,-1.026855,1.4985,-0.1362305,1.4985,-60.4878,1.4985,39.5122,1.4985,22.07317,2.997,-87.1,2.997,-2.2,2.997,65.1,0.1152692,-48.46683,1.4985,-48.46683,1.4985,-48.46683,1.4985,-48.46683
0.1157885,-0.0003986419,1.50525,-0.9670025,1.50525,-0.004044414,1.50525,0.1425689,0.1157885,-4.145876E-05,1.50525,-0.9041529,1.50525,0.1057843,1.50525,-0.09771259,0.1157885,2.500954E-05,1.50525,-0.9388978,1.50525,-0.01951719,1.50525,-0.292533,0.1157885,2.24918E-05,1.50525,-0.8523446,1.50525,0.4261175,1.50525,-0.210728,0.2007,0.005499916,1.50525,-0.07568359,1.50525,-1.036133,1.50525,-0.1577148,1.50525,-64.20732,1.50525,41.70732,1.50525,21.15854,3.0105,-88.4,3.0105,-2.4,3.0105,69.4,0.1157885,-48.46683,1.50525,-48.46683,1.50525,-48.46683,1.50525,-48.46683
0.1163077,-0.0002140078,1.512,-0.9709984,1.512,-0.07684387,1.512,0.1425689,0.1163077,-2.484169E-05,1.512,-0.9120151,1.512,0.0548511,1.512,-0.08956987,0.1163077,4.53193E-05,1.512,-0.9469225,1.512,-0.05464812,1.512,-0.2966532,0.1163077,2.853437E-05,1.512,-0.8444158,1.512,0.4022231,1.512,-0.2228853,0.2016,0.005499916,1.512,-0.09863281,1.512,-1.044922,1.512,-0.184082,1.512,-64.39024,1.512,35.06098,1.512,19.81707,3.024,-88.8,3.024,-2,3.024,73.2,0.1163077,-48.46683,1.512,-48.46683,1.512,-48.46683,1.512,-48.46683
0.1168269,6.663615E-05,1.51875,-0.9909778,1.51875,-0.1132436,1.51875,0.1384955,0.1168269,-2.769513E-05,1.51875,-0.9120151,1.51875,0.05876904,1.51875,-0.1058553,0.1168269,6.243992E-05,1.51875,-0.9268606,1.51875,-0.09758592,1.51875,-0.2884128,0.1168269,3.692683E-05,1.51875,-0.8404514,1.51875,0.3902759,1.51875,-0.2188329,0.2025,0.00548246,1.51875,-0.09082031,1.51875,-1.060547,1.51875,-0.1811523,1.51875,-63.04878,1.51875,26.09756,1.51875,16.95122,3.0375,-89.6,3.0375,-1.6,3.0375,77.3,0.1168269,-48.46683,1.51875,-48.46683,1.51875,-48.46683,1.51875,-48.46683
0.1173462,0.0003113603,1.5255,-0.9989696,1.5255,-0.1011104,1.5255,0.1425689,0.1173462,-5.320821E-05,1.5255,-0.9198773,1.5255,0.1018663,1.5255,-0.04071358,0.1173462,6.764325E-05,1.5255,-0.9148234,1.5255,-0.09368249,1.5255,-0.2760523,0.1173462,4.39765E-05,1.5255,-0.8325226,1.5255,0.3982407,1.5255,-0.202623,0.2034,0.005407263,1.5255,-0.06884766,1.5255,-1.054688,1.5255,-0.1518555,1.5255,-61.40244,1.5255,14.69512,1.5255,13.84146,3.051,-88.8,3.051,-1.4,3.051,81.1,0.1173462,-48.46683,1.5255,-48.46683,1.5255,-48.46683,1.5255,-48.46683
0.1178654,0.0003301594,1.53225,-1.018949,1.53225,-0.04853297,1.53225,0.1425689,0.1178654,-7.502861E-05,1.53225,-0.9395328,1.53225,0.121456,1.53225,-0.04071358,0.1178654,6.260777E-05,1.53225,-0.9148234,1.53225,-0.01561375,1.53225,-0.2760523,0.1178654,5.085832E-05,1.53225,-0.8245938,1.53225,0.4261175,1.53225,-0.2147804,0.2043,0.00533341,1.53225,-0.04882813,1.53225,-1.063965,1.53225,-0.1362305,1.53225,-63.84146,1.53225,13.78049,1.53225,12.2561,3.0645,-88.6,3.0645,-1.5,3.0645,84,0.1178654,-48.46683,1.53225,-48.46683,1.53225,-48.46683,1.53225,-48.46683
0.1183846,0.0001883269,1.539,-1.030937,1.539,0.02426649,1.539,0.1303487,0.1183846,-7.93927E-05,1.539,-0.9709817,1.539,0.1488816,1.539,-0.06107037,0.1183846,5.119402E-05,1.539,-0.9589597,1.539,0.1405237,1.539,-0.2801725,0.1183846,5.824368E-05,1.539,-0.7968431,1.539,0.4619591,1.539,-0.2350427,0.2052,0.005260899,1.539,-0.0390625,1.539,-1.103027,1.539,-0.140625,1.539,-69.63415,1.539,26.52439,1.539,11.03659,3.078,-88.4,3.078,-1.6,3.078,87.3,0.1183846,-48.46683,1.539,-48.46683,1.539,-48.46683,1.539,-48.46683
0.1189038,4.615854E-05,1.54575,-1.038928,1.54575,0.06471063,1.54575,0.1140552,0.1189038,-7.435721E-05,1.54575,-0.9945682,1.54575,0.1606354,1.54575,-0.04478494,0.1189038,3.40734E-05,1.54575,-1.031183,1.54575,0.2966612,1.54575,-0.2595716,0.1189038,6.361487E-05,1.54575,-0.7809855,1.54575,0.5137305,1.54575,-0.2309903,0.2061,0.005188388,1.54575,-0.05224609,1.54575,-1.129883,1.54575,-0.1044922,1.54575,-75.06097,1.54575,37.5,1.54575,11.03659,3.0915,-88.3,3.0915,0.2,3.0915,90.4,0.1189038,-48.46683,1.54575,-48.46683,1.54575,-48.46683,1.54575,-48.46683
0.1194231,-0.0001201801,1.5525,-1.04692,1.5525,0.04853297,1.5525,0.04073398,0.1194231,-6.126497E-05,1.5525,-0.9906371,1.5525,0.121456,1.5525,-0.06921308,0.1194231,1.493858E-05,1.5525,-1.059269,1.5525,0.3786334,1.5525,-0.181288,0.1194231,7.032883E-05,1.5525,-0.7849499,1.5525,0.5455897,1.5525,-0.2431476,0.207,0.005118562,1.5525,-0.02050781,1.5525,-1.125977,1.5525,-0.09716797,1.5525,-78.17073,1.5525,37.9878,1.5525,11.03659,3.105,-88.8,3.105,0.5,3.105,90.3,0.1194231,-48.46683,1.5525,-48.46683,1.5525,-48.46683,1.5525,-48.46683
